subj,trial_num,trial_type,game_trial,target,correct,rt,pic1,pic2,pic3,side_selected
1,1,practice,FALSE,apple,TRUE,3811,banana,apple,orange,M
1,2,practice,FALSE,artichoke,FALSE,3777,artichoke,onion,asparagus,M
1,3,practice,FALSE,apple,TRUE,1953,banana,apple,orange,M
1,4,practice,FALSE,artichoke,FALSE,1517,asparagus,onion,artichoke,M
1,5,high,TRUE,bird,TRUE,5279,bird,dog,cat,L
1,6,low,TRUE,peacock,FALSE,6769,raccoon,peacock,squirrel,R
1,7,high,TRUE,cow,TRUE,4673,horse,pig,cow,R
1,8,low,TRUE,squirrel,FALSE,3363,raccoon,peacock,squirrel,L
1,9,high,TRUE,pig,TRUE,3733,cow,pig,horse,M
1,10,low,TRUE,squirrel,TRUE,4801,peacock,raccoon,squirrel,R
1,11,high,TRUE,pig,TRUE,3113,horse,cow,pig,R
1,12,low,TRUE,rooster,FALSE,1784,rooster,swan,leopard,R
1,13,high,TRUE,cat,FALSE,2138,cat,dog,bird,M
1,14,low,TRUE,rhinoceros,FALSE,3437,lobster,donkey,rhinoceros,M
1,15,high,TRUE,horse,TRUE,2841,cow,pig,horse,R
1,16,low,TRUE,donkey,FALSE,4325,donkey,lobster,rhinoceros,R
1,17,high,TRUE,cat,FALSE,2955,bird,cat,dog,L
1,18,low,TRUE,rhinoceros,TRUE,3525,rhinoceros,lobster,donkey,L
1,19,high,TRUE,elephant,FALSE,3326,elephant,fish,duck,R
1,20,low,TRUE,swan,FALSE,16881,leopard,swan,rooster,L
1,21,high,TRUE,duck,TRUE,4414,elephant,fish,duck,R
1,22,low,TRUE,leopard,TRUE,6368,swan,rooster,leopard,R
1,23,high,TRUE,fish,TRUE,2567,elephant,duck,fish,R
1,24,low,TRUE,rooster,TRUE,4102,rooster,leopard,swan,L
1,25,high,TRUE,duck,TRUE,4022,fish,elephant,duck,R
1,26,low,TRUE,lobster,TRUE,5969,donkey,lobster,rhinoceros,M
1,27,high,TRUE,cow,TRUE,3111,horse,cow,pig,M
1,28,low,TRUE,leopard,TRUE,3240,leopard,rooster,swan,L
1,29,high,TRUE,bird,TRUE,3780,bird,cat,dog,L
1,30,low,TRUE,lobster,TRUE,3008,rhinoceros,lobster,donkey,M
1,31,high,TRUE,fish,TRUE,2528,elephant,fish,duck,M
1,32,low,TRUE,peacock,FALSE,5037,squirrel,raccoon,peacock,M
1,33,high,TRUE,dog,TRUE,3104,cat,bird,dog,R
1,34,low,TRUE,swan,FALSE,4441,leopard,rooster,swan,L
1,35,high,TRUE,elephant,TRUE,1571,fish,duck,elephant,R
1,36,low,TRUE,donkey,TRUE,3534,rhinoceros,donkey,lobster,M
1,37,high,TRUE,dog,TRUE,2631,bird,dog,cat,M
1,38,low,TRUE,raccoon,FALSE,4406,squirrel,raccoon,peacock,L
1,39,high,TRUE,horse,FALSE,2463,horse,cow,pig,R
1,40,low,TRUE,raccoon,FALSE,3790,raccoon,peacock,squirrel,R
2,1,practice,FALSE,apple,TRUE,2691,orange,banana,apple,R
2,2,practice,FALSE,artichoke,TRUE,7207,asparagus,artichoke,onion,M
2,3,practice,FALSE,apple,TRUE,2537,orange,apple,banana,M
2,4,practice,FALSE,artichoke,TRUE,8262,artichoke,onion,asparagus,L
2,5,low,TRUE,donkey,TRUE,13869,lobster,donkey,rhinoceros,M
2,6,high,TRUE,pig,TRUE,5183,pig,cow,horse,L
2,7,low,TRUE,peacock,FALSE,5597,raccoon,squirrel,peacock,L
2,8,high,TRUE,cat,TRUE,3115,dog,bird,cat,R
2,9,low,TRUE,lobster,TRUE,6267,lobster,donkey,rhinoceros,L
2,10,high,TRUE,cat,TRUE,3745,cat,bird,dog,L
2,11,low,TRUE,raccoon,TRUE,7216,raccoon,peacock,squirrel,L
2,12,high,TRUE,horse,TRUE,3155,cow,pig,horse,R
2,13,low,TRUE,squirrel,TRUE,3566,raccoon,peacock,squirrel,R
2,14,high,TRUE,elephant,TRUE,2641,fish,duck,elephant,R
2,15,low,TRUE,raccoon,TRUE,7205,squirrel,raccoon,peacock,M
2,16,high,TRUE,pig,TRUE,2330,cow,pig,horse,M
2,17,low,TRUE,swan,TRUE,7200,rooster,leopard,swan,R
2,18,high,TRUE,duck,TRUE,2627,elephant,fish,duck,R
2,19,low,TRUE,leopard,TRUE,13090,swan,rooster,leopard,R
2,20,high,TRUE,cow,FALSE,5416,horse,pig,cow,L
2,21,low,TRUE,rooster,TRUE,8838,rooster,leopard,swan,L
2,22,high,TRUE,cow,TRUE,4807,cow,horse,pig,L
2,23,low,TRUE,squirrel,TRUE,13920,raccoon,peacock,squirrel,R
2,24,high,TRUE,bird,TRUE,2022,cat,bird,dog,M
2,25,low,TRUE,rhinoceros,TRUE,15203,lobster,donkey,rhinoceros,R
2,26,high,TRUE,horse,TRUE,3681,horse,cow,pig,L
2,27,low,TRUE,rooster,TRUE,5209,swan,leopard,rooster,R
2,28,high,TRUE,duck,TRUE,3167,elephant,duck,fish,M
2,29,low,TRUE,swan,TRUE,7854,swan,leopard,rooster,L
2,30,high,TRUE,dog,TRUE,3701,bird,cat,dog,R
2,31,low,TRUE,donkey,TRUE,9236,rhinoceros,lobster,donkey,R
2,32,high,TRUE,fish,TRUE,2384,fish,elephant,duck,L
2,33,low,TRUE,leopard,TRUE,8330,leopard,rooster,swan,L
2,34,high,TRUE,bird,TRUE,4049,dog,bird,cat,M
2,35,low,TRUE,lobster,TRUE,4970,rhinoceros,donkey,lobster,R
2,36,high,TRUE,dog,TRUE,1848,cat,bird,dog,R
2,37,low,TRUE,rhinoceros,TRUE,7867,donkey,rhinoceros,lobster,M
2,38,high,TRUE,fish,TRUE,2700,fish,duck,elephant,L
2,39,low,TRUE,peacock,TRUE,11904,raccoon,squirrel,peacock,R
2,40,high,TRUE,elephant,TRUE,2221,fish,duck,elephant,R
3,1,practice,FALSE,apple,FALSE,2812,apple,orange,banana,R
3,2,practice,FALSE,artichoke,TRUE,4832,artichoke,onion,asparagus,L
3,3,practice,FALSE,apple,TRUE,2606,orange,banana,apple,R
3,4,practice,FALSE,artichoke,TRUE,2050,onion,asparagus,artichoke,R
3,5,low,TRUE,lobster,FALSE,4364,lobster,rhinoceros,donkey,M
3,6,high,TRUE,cat,TRUE,2129,cat,dog,bird,L
3,7,low,TRUE,leopard,TRUE,NA,rooster,swan,leopard,R
3,8,high,TRUE,horse,TRUE,2995,cow,pig,horse,R
3,9,low,TRUE,donkey,TRUE,3506,donkey,rhinoceros,lobster,L
3,10,high,TRUE,cow,FALSE,4739,cow,pig,horse,R
3,11,low,TRUE,swan,FALSE,2587,swan,rooster,leopard,R
3,12,high,TRUE,bird,TRUE,4866,bird,dog,cat,L
3,13,low,TRUE,rhinoceros,TRUE,3163,rhinoceros,lobster,donkey,L
3,14,high,TRUE,pig,TRUE,3105,cow,pig,horse,M
3,15,low,TRUE,rooster,TRUE,2870,rooster,swan,leopard,L
3,16,high,TRUE,duck,TRUE,4332,elephant,fish,duck,R
3,17,low,TRUE,squirrel,FALSE,3698,squirrel,peacock,raccoon,M
3,18,high,TRUE,fish,TRUE,1938,fish,elephant,duck,L
3,19,low,TRUE,lobster,FALSE,3336,donkey,lobster,rhinoceros,L
3,20,high,TRUE,horse,TRUE,2256,pig,horse,cow,M
3,21,low,TRUE,raccoon,FALSE,2742,squirrel,raccoon,peacock,L
3,22,high,TRUE,pig,TRUE,3329,cow,pig,horse,M
3,23,low,TRUE,squirrel,TRUE,2029,squirrel,raccoon,peacock,L
3,24,high,TRUE,elephant,TRUE,2811,fish,elephant,duck,M
3,25,low,TRUE,swan,TRUE,3398,leopard,swan,rooster,M
3,26,high,TRUE,dog,TRUE,2505,dog,bird,cat,L
3,27,low,TRUE,donkey,FALSE,2862,donkey,rhinoceros,lobster,M
3,28,high,TRUE,fish,TRUE,2661,fish,duck,elephant,L
3,29,low,TRUE,rhinoceros,FALSE,4193,donkey,lobster,rhinoceros,M
3,30,high,TRUE,elephant,TRUE,2865,duck,fish,elephant,R
3,31,low,TRUE,peacock,TRUE,3976,raccoon,peacock,squirrel,M
3,32,high,TRUE,cat,TRUE,2647,bird,dog,cat,R
3,33,low,TRUE,raccoon,TRUE,3062,raccoon,squirrel,peacock,L
3,34,high,TRUE,cow,TRUE,3856,cow,horse,pig,L
3,35,low,TRUE,peacock,FALSE,2499,squirrel,peacock,raccoon,L
3,36,high,TRUE,duck,TRUE,4048,fish,elephant,duck,R
3,37,low,TRUE,leopard,FALSE,3565,swan,leopard,rooster,L
3,38,high,TRUE,bird,TRUE,1849,bird,dog,cat,L
3,39,low,TRUE,rooster,TRUE,1705,leopard,rooster,swan,M
3,40,high,TRUE,dog,TRUE,3455,cat,bird,dog,R
4,1,practice,FALSE,apple,FALSE,2028,orange,banana,apple,L
4,2,practice,FALSE,artichoke,TRUE,2975,asparagus,artichoke,onion,M
4,3,practice,FALSE,apple,TRUE,3957,orange,apple,banana,M
4,4,practice,FALSE,artichoke,TRUE,2413,artichoke,asparagus,onion,L
4,5,high,TRUE,elephant,TRUE,3659,fish,duck,elephant,R
4,6,low,TRUE,donkey,TRUE,3111,rhinoceros,lobster,donkey,R
4,7,high,TRUE,cat,TRUE,1878,cat,bird,dog,L
4,8,low,TRUE,swan,FALSE,2898,rooster,leopard,swan,L
4,9,high,TRUE,duck,TRUE,3213,elephant,fish,duck,R
4,10,low,TRUE,peacock,TRUE,2337,raccoon,peacock,squirrel,M
4,11,high,TRUE,dog,TRUE,2495,cat,bird,dog,R
4,12,low,TRUE,raccoon,FALSE,2803,squirrel,raccoon,peacock,L
4,13,high,TRUE,horse,FALSE,2849,horse,cow,pig,M
4,14,low,TRUE,donkey,TRUE,3808,lobster,donkey,rhinoceros,M
4,15,high,TRUE,bird,FALSE,3880,dog,bird,cat,R
4,16,low,TRUE,rhinoceros,TRUE,3383,rhinoceros,lobster,donkey,L
4,17,high,TRUE,fish,TRUE,2607,duck,elephant,fish,R
4,18,low,TRUE,raccoon,TRUE,3465,raccoon,peacock,squirrel,L
4,19,high,TRUE,pig,TRUE,3681,pig,horse,cow,L
4,20,low,TRUE,squirrel,TRUE,3333,raccoon,squirrel,peacock,M
4,21,high,TRUE,cow,TRUE,2836,cow,horse,pig,L
4,22,low,TRUE,rooster,TRUE,3504,swan,leopard,rooster,R
4,23,high,TRUE,bird,FALSE,3976,cat,dog,bird,L
4,24,low,TRUE,lobster,FALSE,4065,rhinoceros,donkey,lobster,M
4,25,high,TRUE,pig,TRUE,2383,cow,pig,horse,M
4,26,low,TRUE,peacock,TRUE,3941,peacock,squirrel,raccoon,L
4,27,high,TRUE,dog,FALSE,4801,cat,bird,dog,L
4,28,low,TRUE,leopard,TRUE,2871,rooster,swan,leopard,R
4,29,high,TRUE,cow,TRUE,3016,pig,horse,cow,R
4,30,low,TRUE,lobster,TRUE,2162,rhinoceros,donkey,lobster,R
4,31,high,TRUE,elephant,TRUE,2734,duck,fish,elephant,R
4,32,low,TRUE,swan,FALSE,3561,leopard,rooster,swan,L
4,33,high,TRUE,cat,TRUE,3967,cat,dog,bird,L
4,34,low,TRUE,rooster,TRUE,2801,rooster,leopard,swan,L
4,35,high,TRUE,horse,TRUE,3146,pig,horse,cow,M
4,36,low,TRUE,leopard,TRUE,1884,rooster,leopard,swan,M
4,37,high,TRUE,fish,TRUE,2474,elephant,duck,fish,R
4,38,low,TRUE,squirrel,TRUE,2604,raccoon,peacock,squirrel,R
4,39,high,TRUE,duck,TRUE,2342,fish,elephant,duck,R
4,40,low,TRUE,rhinoceros,FALSE,2856,rhinoceros,lobster,donkey,M
5,1,practice,FALSE,apple,TRUE,6289,orange,banana,apple,R
5,2,practice,FALSE,artichoke,TRUE,9489,artichoke,asparagus,onion,L
5,3,practice,FALSE,apple,TRUE,3722,orange,apple,banana,M
5,4,practice,FALSE,artichoke,TRUE,5019,artichoke,onion,asparagus,L
5,5,low,TRUE,swan,TRUE,6789,rooster,leopard,swan,R
5,6,high,TRUE,elephant,TRUE,2978,elephant,fish,duck,L
5,7,low,TRUE,peacock,TRUE,3543,raccoon,squirrel,peacock,R
5,8,high,TRUE,bird,TRUE,3445,cat,bird,dog,M
5,9,low,TRUE,lobster,TRUE,4073,rhinoceros,lobster,donkey,M
5,10,high,TRUE,cat,TRUE,3691,bird,dog,cat,R
5,11,low,TRUE,peacock,TRUE,2464,raccoon,squirrel,peacock,R
5,12,high,TRUE,horse,TRUE,3464,horse,cow,pig,L
5,13,low,TRUE,lobster,TRUE,3236,donkey,rhinoceros,lobster,R
5,14,high,TRUE,dog,TRUE,3163,cat,dog,bird,M
5,15,low,TRUE,raccoon,FALSE,5409,peacock,squirrel,raccoon,M
5,16,high,TRUE,cow,TRUE,3991,pig,cow,horse,M
5,17,low,TRUE,swan,FALSE,2339,swan,rooster,leopard,R
5,18,high,TRUE,cat,TRUE,2431,cat,dog,bird,L
5,19,low,TRUE,squirrel,TRUE,3303,raccoon,squirrel,peacock,M
5,20,high,TRUE,duck,FALSE,1543,elephant,fish,duck,L
5,21,low,TRUE,raccoon,TRUE,4786,squirrel,peacock,raccoon,R
5,22,high,TRUE,pig,FALSE,3364,horse,pig,cow,L
5,23,low,TRUE,rooster,TRUE,2228,rooster,swan,leopard,L
5,24,high,TRUE,bird,TRUE,2630,bird,cat,dog,L
5,25,low,TRUE,leopard,TRUE,1963,leopard,rooster,swan,L
5,26,high,TRUE,cow,TRUE,4762,horse,cow,pig,M
5,27,low,TRUE,rhinoceros,TRUE,4680,donkey,lobster,rhinoceros,R
5,28,high,TRUE,elephant,TRUE,3473,elephant,fish,duck,L
5,29,low,TRUE,donkey,FALSE,3392,lobster,donkey,rhinoceros,L
5,30,high,TRUE,duck,FALSE,3329,duck,fish,elephant,M
5,31,low,TRUE,rhinoceros,TRUE,6606,lobster,donkey,rhinoceros,R
5,32,high,TRUE,dog,TRUE,4012,cat,dog,bird,M
5,33,low,TRUE,squirrel,TRUE,3525,raccoon,peacock,squirrel,R
5,34,high,TRUE,fish,TRUE,2735,duck,fish,elephant,M
5,35,low,TRUE,rooster,TRUE,7617,swan,rooster,leopard,M
5,36,high,TRUE,horse,TRUE,2244,horse,pig,cow,L
5,37,low,TRUE,donkey,FALSE,3236,donkey,lobster,rhinoceros,M
5,38,high,TRUE,fish,TRUE,4588,duck,fish,elephant,M
5,39,low,TRUE,leopard,FALSE,7502,swan,rooster,leopard,L
5,40,high,TRUE,pig,TRUE,2786,cow,horse,pig,R
6,1,practice,FALSE,apple,TRUE,6952,apple,orange,banana,L
6,2,practice,FALSE,artichoke,TRUE,15415,onion,artichoke,asparagus,M
6,3,practice,FALSE,apple,TRUE,4939,apple,orange,banana,L
6,4,practice,FALSE,artichoke,TRUE,5997,artichoke,asparagus,onion,L
6,5,high,TRUE,duck,TRUE,5477,elephant,fish,duck,R
6,6,low,TRUE,rooster,TRUE,3844,leopard,swan,rooster,R
6,7,high,TRUE,duck,TRUE,5176,duck,fish,elephant,L
6,8,low,TRUE,squirrel,TRUE,9367,peacock,raccoon,squirrel,R
6,9,high,TRUE,cat,TRUE,2795,dog,cat,bird,M
6,10,low,TRUE,rooster,TRUE,8893,leopard,rooster,swan,M
6,11,high,TRUE,dog,TRUE,7002,bird,dog,cat,M
6,12,low,TRUE,swan,TRUE,7416,leopard,swan,rooster,M
6,13,high,TRUE,pig,TRUE,5345,horse,pig,cow,M
6,14,low,TRUE,lobster,TRUE,17056,donkey,lobster,rhinoceros,M
6,15,high,TRUE,horse,TRUE,6268,pig,horse,cow,M
6,16,low,TRUE,raccoon,TRUE,9558,peacock,squirrel,raccoon,R
6,17,high,TRUE,cow,FALSE,12186,horse,cow,pig,L
6,18,low,TRUE,swan,TRUE,14220,leopard,rooster,swan,R
6,19,high,TRUE,fish,TRUE,6610,duck,elephant,fish,R
6,20,low,TRUE,leopard,TRUE,16623,leopard,swan,rooster,L
6,21,high,TRUE,cow,TRUE,5562,pig,cow,horse,M
6,22,low,TRUE,peacock,TRUE,8246,squirrel,peacock,raccoon,M
6,23,high,TRUE,cat,TRUE,5227,bird,cat,dog,M
6,24,low,TRUE,peacock,TRUE,10907,raccoon,squirrel,peacock,R
6,25,high,TRUE,dog,TRUE,6250,cat,bird,dog,R
6,26,low,TRUE,donkey,FALSE,4796,lobster,rhinoceros,donkey,L
6,27,high,TRUE,elephant,TRUE,4187,fish,elephant,duck,M
6,28,low,TRUE,donkey,TRUE,16624,lobster,donkey,rhinoceros,M
6,29,high,TRUE,bird,TRUE,2592,bird,cat,dog,L
6,30,low,TRUE,rhinoceros,TRUE,4554,lobster,donkey,rhinoceros,R
6,31,high,TRUE,horse,TRUE,6660,cow,pig,horse,R
6,32,low,TRUE,lobster,TRUE,6629,lobster,rhinoceros,donkey,L
6,33,high,TRUE,elephant,TRUE,6348,duck,fish,elephant,R
6,34,low,TRUE,rhinoceros,FALSE,3259,rhinoceros,donkey,lobster,M
6,35,high,TRUE,pig,TRUE,18393,cow,pig,horse,M
6,36,low,TRUE,raccoon,TRUE,12663,squirrel,raccoon,peacock,M
6,37,high,TRUE,bird,TRUE,3592,dog,cat,bird,R
6,38,low,TRUE,squirrel,TRUE,6012,peacock,raccoon,squirrel,R
6,39,high,TRUE,fish,TRUE,4819,duck,elephant,fish,R
6,40,low,TRUE,leopard,TRUE,3203,swan,leopard,rooster,M
7,1,practice,FALSE,apple,TRUE,27268,banana,apple,orange,M
7,2,practice,FALSE,artichoke,FALSE,2281,artichoke,asparagus,onion,R
7,3,practice,FALSE,apple,TRUE,2883,banana,apple,orange,M
7,4,practice,FALSE,artichoke,FALSE,1722,asparagus,artichoke,onion,R
7,5,high,TRUE,cow,TRUE,6001,horse,cow,pig,M
7,6,low,TRUE,rooster,FALSE,1706,rooster,swan,leopard,R
7,7,high,TRUE,elephant,TRUE,3339,elephant,duck,fish,L
7,8,low,TRUE,rooster,TRUE,2228,rooster,swan,leopard,L
7,9,high,TRUE,bird,TRUE,4129,bird,dog,cat,L
7,10,low,TRUE,donkey,TRUE,2449,donkey,lobster,rhinoceros,L
7,11,high,TRUE,dog,TRUE,1865,bird,dog,cat,M
7,12,low,TRUE,donkey,TRUE,2935,donkey,lobster,rhinoceros,L
7,13,high,TRUE,duck,TRUE,3185,duck,fish,elephant,L
7,14,low,TRUE,squirrel,TRUE,3869,squirrel,raccoon,peacock,L
7,15,high,TRUE,horse,TRUE,2812,horse,cow,pig,L
7,16,low,TRUE,rhinoceros,FALSE,5954,lobster,rhinoceros,donkey,R
7,17,high,TRUE,pig,TRUE,8412,cow,pig,horse,M
7,18,low,TRUE,lobster,FALSE,12043,lobster,rhinoceros,donkey,R
7,19,high,TRUE,pig,TRUE,9801,horse,pig,cow,M
7,20,low,TRUE,squirrel,FALSE,7441,raccoon,squirrel,peacock,L
7,21,high,TRUE,duck,FALSE,7330,fish,elephant,duck,M
7,22,low,TRUE,lobster,FALSE,33703,lobster,donkey,rhinoceros,M
7,23,high,TRUE,cat,TRUE,1878,bird,cat,dog,M
7,24,low,TRUE,swan,FALSE,2400,swan,rooster,leopard,R
7,25,high,TRUE,elephant,TRUE,1870,fish,duck,elephant,R
7,26,low,TRUE,swan,FALSE,2270,rooster,swan,leopard,R
7,27,high,TRUE,fish,TRUE,66881,fish,elephant,duck,L
7,28,low,TRUE,peacock,FALSE,11442,raccoon,peacock,squirrel,L
7,29,high,TRUE,horse,FALSE,3160,cow,pig,horse,L
7,30,low,TRUE,raccoon,TRUE,2509,raccoon,squirrel,peacock,L
7,31,high,TRUE,bird,FALSE,2929,dog,cat,bird,M
7,32,low,TRUE,rhinoceros,TRUE,20750,lobster,rhinoceros,donkey,M
7,33,high,TRUE,fish,TRUE,2189,duck,elephant,fish,R
7,34,low,TRUE,leopard,TRUE,24378,rooster,leopard,swan,M
7,35,high,TRUE,dog,FALSE,3397,cat,dog,bird,L
8,1,practice,FALSE,apple,FALSE,10508,apple,banana,orange,M
8,2,practice,FALSE,artichoke,TRUE,14718,asparagus,onion,artichoke,R
8,3,practice,FALSE,apple,TRUE,16437,apple,orange,banana,L
8,4,practice,FALSE,artichoke,TRUE,7458,artichoke,asparagus,onion,L
8,5,low,TRUE,lobster,TRUE,20249,rhinoceros,donkey,lobster,R
8,6,high,TRUE,cat,TRUE,6046,bird,cat,dog,M
8,7,low,TRUE,donkey,TRUE,1925,lobster,rhinoceros,donkey,R
8,8,high,TRUE,fish,TRUE,7963,fish,duck,elephant,L
8,9,low,TRUE,raccoon,TRUE,12394,squirrel,peacock,raccoon,R
8,10,high,TRUE,pig,TRUE,7383,cow,pig,horse,M
8,11,low,TRUE,donkey,TRUE,7441,lobster,rhinoceros,donkey,R
8,12,high,TRUE,cow,FALSE,4698,cow,horse,pig,R
8,13,low,TRUE,peacock,FALSE,1539,peacock,raccoon,squirrel,M
8,14,high,TRUE,cat,TRUE,7701,bird,cat,dog,M
8,15,low,TRUE,lobster,FALSE,4072,rhinoceros,donkey,lobster,M
8,16,high,TRUE,bird,FALSE,10164,cat,bird,dog,R
8,17,low,TRUE,leopard,TRUE,18287,leopard,rooster,swan,L
8,18,high,TRUE,horse,FALSE,19152,pig,horse,cow,R
8,19,low,TRUE,squirrel,TRUE,1813,peacock,raccoon,squirrel,R
8,20,high,TRUE,dog,TRUE,17684,bird,dog,cat,M
8,21,low,TRUE,squirrel,TRUE,18990,squirrel,raccoon,peacock,L
8,22,high,TRUE,elephant,FALSE,3039,fish,duck,elephant,L
8,23,low,TRUE,peacock,TRUE,21546,raccoon,squirrel,peacock,R
8,24,high,TRUE,duck,FALSE,21411,elephant,duck,fish,R
8,25,low,TRUE,rhinoceros,TRUE,118573,rhinoceros,donkey,lobster,L
8,26,high,TRUE,fish,TRUE,3306,duck,elephant,fish,R
8,27,low,TRUE,rooster,TRUE,4252,leopard,rooster,swan,M
8,28,high,TRUE,dog,FALSE,2095,bird,dog,cat,R
8,29,low,TRUE,leopard,TRUE,6145,leopard,swan,rooster,L
9,1,practice,FALSE,apple,TRUE,2310,banana,orange,apple,R
9,2,practice,FALSE,artichoke,TRUE,6939,asparagus,onion,artichoke,R
9,3,practice,FALSE,apple,TRUE,5023,orange,banana,apple,R
9,4,practice,FALSE,artichoke,FALSE,2905,artichoke,onion,asparagus,R
9,5,low,TRUE,leopard,FALSE,11654,swan,leopard,rooster,R
9,6,high,TRUE,cow,TRUE,9279,horse,pig,cow,R
9,7,low,TRUE,rhinoceros,TRUE,5268,donkey,lobster,rhinoceros,R
9,8,high,TRUE,elephant,TRUE,5828,elephant,duck,fish,L
9,9,low,TRUE,rooster,TRUE,3164,swan,leopard,rooster,R
9,10,high,TRUE,dog,FALSE,4827,dog,cat,bird,M
9,11,low,TRUE,peacock,TRUE,4167,peacock,squirrel,raccoon,L
9,12,high,TRUE,pig,TRUE,2613,pig,cow,horse,L
9,13,low,TRUE,leopard,FALSE,4986,rooster,swan,leopard,M
9,14,high,TRUE,bird,TRUE,3144,dog,cat,bird,R
9,15,low,TRUE,lobster,TRUE,9211,donkey,lobster,rhinoceros,M
9,16,high,TRUE,horse,TRUE,2943,cow,pig,horse,R
9,17,low,TRUE,swan,TRUE,6687,rooster,swan,leopard,M
9,18,high,TRUE,cat,TRUE,2490,bird,dog,cat,R
9,19,low,TRUE,rooster,TRUE,2815,rooster,swan,leopard,L
9,20,high,TRUE,duck,TRUE,4982,duck,elephant,fish,L
9,21,low,TRUE,swan,TRUE,5497,leopard,rooster,swan,R
9,22,high,TRUE,horse,FALSE,7512,horse,cow,pig,M
9,23,low,TRUE,squirrel,TRUE,3374,squirrel,peacock,raccoon,L
9,24,high,TRUE,fish,TRUE,4118,elephant,duck,fish,R
9,25,low,TRUE,donkey,TRUE,16597,donkey,lobster,rhinoceros,L
9,26,high,TRUE,cow,TRUE,9288,cow,pig,horse,L
9,27,low,TRUE,peacock,FALSE,37507,peacock,squirrel,raccoon,M
9,28,high,TRUE,pig,TRUE,6747,pig,cow,horse,L
9,29,low,TRUE,rhinoceros,TRUE,8168,rhinoceros,lobster,donkey,L
9,30,high,TRUE,bird,TRUE,4744,bird,dog,cat,L
9,31,low,TRUE,donkey,TRUE,3657,rhinoceros,donkey,lobster,M
9,32,high,TRUE,fish,TRUE,3295,duck,fish,elephant,M
9,33,low,TRUE,raccoon,TRUE,4681,raccoon,peacock,squirrel,L
9,34,high,TRUE,duck,TRUE,1872,elephant,fish,duck,R
9,35,low,TRUE,raccoon,TRUE,6603,raccoon,peacock,squirrel,L
9,36,high,TRUE,elephant,FALSE,20135,elephant,duck,fish,R
9,37,low,TRUE,lobster,TRUE,2549,donkey,rhinoceros,lobster,R
9,38,high,TRUE,cat,TRUE,3041,cat,dog,bird,L
9,39,low,TRUE,squirrel,TRUE,12002,squirrel,peacock,raccoon,L
9,40,high,TRUE,dog,TRUE,2325,bird,dog,cat,M
10,1,practice,FALSE,apple,TRUE,2120,banana,apple,orange,M
10,2,practice,FALSE,artichoke,FALSE,2029,artichoke,asparagus,onion,M
10,3,practice,FALSE,apple,TRUE,1700,banana,orange,apple,R
10,4,practice,FALSE,artichoke,FALSE,2013,artichoke,asparagus,onion,M
10,5,high,TRUE,bird,FALSE,1707,cat,dog,bird,L
10,6,low,TRUE,squirrel,TRUE,3590,peacock,raccoon,squirrel,R
10,7,high,TRUE,bird,TRUE,3062,bird,dog,cat,L
10,8,low,TRUE,swan,TRUE,4962,rooster,swan,leopard,M
10,9,high,TRUE,fish,TRUE,3617,duck,elephant,fish,R
10,10,low,TRUE,rhinoceros,FALSE,3256,rhinoceros,lobster,donkey,M
10,11,high,TRUE,cat,TRUE,3034,bird,dog,cat,R
10,12,low,TRUE,raccoon,TRUE,5484,raccoon,squirrel,peacock,L
10,13,high,TRUE,cow,TRUE,4449,horse,pig,cow,R
10,14,low,TRUE,lobster,FALSE,4187,rhinoceros,donkey,lobster,M
10,15,high,TRUE,dog,TRUE,2768,cat,dog,bird,M
10,16,low,TRUE,swan,FALSE,3452,leopard,swan,rooster,L
10,17,high,TRUE,duck,TRUE,3381,elephant,fish,duck,R
10,18,low,TRUE,rhinoceros,FALSE,3185,donkey,lobster,rhinoceros,L
10,19,high,TRUE,pig,TRUE,4633,horse,cow,pig,R
10,20,low,TRUE,leopard,FALSE,3679,swan,leopard,rooster,R
10,21,high,TRUE,elephant,TRUE,4102,fish,duck,elephant,R
10,22,low,TRUE,leopard,FALSE,3676,rooster,swan,leopard,M
10,23,high,TRUE,fish,FALSE,3552,duck,fish,elephant,R
10,24,low,TRUE,raccoon,TRUE,3246,peacock,raccoon,squirrel,M
10,25,high,TRUE,horse,TRUE,2399,cow,pig,horse,R
10,26,low,TRUE,rooster,FALSE,3132,rooster,swan,leopard,M
10,27,high,TRUE,elephant,TRUE,2504,elephant,duck,fish,L
10,28,low,TRUE,donkey,TRUE,4264,donkey,lobster,rhinoceros,L
10,29,high,TRUE,duck,TRUE,5137,duck,fish,elephant,L
10,30,low,TRUE,donkey,TRUE,3547,donkey,lobster,rhinoceros,L
10,31,high,TRUE,pig,TRUE,3225,pig,cow,horse,L
10,32,low,TRUE,rooster,TRUE,2156,leopard,rooster,swan,M
10,33,high,TRUE,cat,TRUE,2452,dog,cat,bird,M
10,34,low,TRUE,peacock,FALSE,2237,squirrel,peacock,raccoon,L
10,35,high,TRUE,horse,TRUE,2246,pig,horse,cow,M
10,36,low,TRUE,squirrel,TRUE,2075,peacock,squirrel,raccoon,M
10,37,high,TRUE,cow,TRUE,2122,horse,cow,pig,M
10,38,low,TRUE,peacock,FALSE,3362,squirrel,raccoon,peacock,M
10,39,high,TRUE,dog,TRUE,3894,bird,cat,dog,R
10,40,low,TRUE,lobster,TRUE,2585,rhinoceros,donkey,lobster,R
11,1,practice,FALSE,apple,TRUE,4137,apple,banana,orange,L
11,2,practice,FALSE,artichoke,FALSE,1750,artichoke,onion,asparagus,M
11,3,practice,FALSE,apple,TRUE,3397,banana,apple,orange,M
11,4,practice,FALSE,artichoke,FALSE,4134,asparagus,onion,artichoke,M
11,5,high,TRUE,dog,FALSE,12526,dog,cat,bird,M
11,6,low,TRUE,raccoon,TRUE,5644,squirrel,peacock,raccoon,R
11,7,high,TRUE,horse,TRUE,1888,horse,pig,cow,L
11,8,low,TRUE,rooster,TRUE,5795,leopard,swan,rooster,R
11,9,high,TRUE,cat,TRUE,4622,cat,dog,bird,L
11,10,low,TRUE,rhinoceros,TRUE,4392,donkey,lobster,rhinoceros,R
11,11,high,TRUE,pig,TRUE,4952,horse,pig,cow,M
11,12,low,TRUE,peacock,TRUE,5375,raccoon,squirrel,peacock,R
11,13,high,TRUE,fish,TRUE,4099,fish,duck,elephant,L
11,14,low,TRUE,rhinoceros,TRUE,6646,rhinoceros,donkey,lobster,L
11,15,high,TRUE,pig,TRUE,4816,horse,cow,pig,R
11,16,low,TRUE,lobster,TRUE,5691,donkey,rhinoceros,lobster,R
11,17,high,TRUE,cow,TRUE,3032,horse,pig,cow,R
11,18,low,TRUE,peacock,TRUE,3169,squirrel,peacock,raccoon,M
11,19,high,TRUE,fish,TRUE,2849,fish,duck,elephant,L
11,20,low,TRUE,donkey,TRUE,3948,rhinoceros,lobster,donkey,R
11,21,high,TRUE,duck,TRUE,3841,elephant,duck,fish,M
11,22,low,TRUE,squirrel,TRUE,5337,raccoon,peacock,squirrel,R
11,23,high,TRUE,elephant,TRUE,8436,fish,elephant,duck,M
11,24,low,TRUE,swan,TRUE,13759,rooster,leopard,swan,R
11,25,high,TRUE,duck,TRUE,6089,duck,elephant,fish,L
11,26,low,TRUE,leopard,TRUE,8400,leopard,rooster,swan,L
11,27,high,TRUE,horse,TRUE,4247,pig,horse,cow,M
11,28,low,TRUE,raccoon,TRUE,4162,peacock,raccoon,squirrel,M
11,29,high,TRUE,cow,TRUE,2785,horse,cow,pig,M
11,30,low,TRUE,lobster,TRUE,6912,donkey,lobster,rhinoceros,M
11,31,high,TRUE,bird,TRUE,3478,cat,bird,dog,M
11,32,low,TRUE,leopard,FALSE,3755,swan,rooster,leopard,M
11,33,high,TRUE,bird,TRUE,3711,cat,dog,bird,R
11,34,low,TRUE,donkey,TRUE,6118,lobster,rhinoceros,donkey,R
11,35,high,TRUE,elephant,TRUE,2210,fish,duck,elephant,R
11,36,low,TRUE,squirrel,TRUE,5398,squirrel,peacock,raccoon,L
11,37,high,TRUE,dog,TRUE,4028,bird,cat,dog,R
11,38,low,TRUE,swan,TRUE,7410,rooster,swan,leopard,M
11,39,high,TRUE,cat,TRUE,2693,dog,cat,bird,M
11,40,low,TRUE,rooster,TRUE,5781,leopard,rooster,swan,M
12,1,practice,FALSE,apple,FALSE,4504,banana,orange,apple,M
12,2,practice,FALSE,artichoke,FALSE,2292,onion,asparagus,artichoke,L
12,3,practice,FALSE,apple,FALSE,NA,apple,banana,orange,R
12,4,practice,FALSE,artichoke,TRUE,2042,onion,artichoke,asparagus,M
12,5,low,TRUE,raccoon,FALSE,4434,peacock,squirrel,raccoon,M
12,6,high,TRUE,fish,TRUE,2496,elephant,fish,duck,M
12,7,low,TRUE,donkey,FALSE,3464,lobster,rhinoceros,donkey,M
12,8,high,TRUE,cat,FALSE,2285,cat,bird,dog,M
12,9,low,TRUE,raccoon,TRUE,6286,peacock,squirrel,raccoon,R
12,10,high,TRUE,pig,TRUE,2465,pig,cow,horse,L
12,11,low,TRUE,rooster,TRUE,3490,rooster,leopard,swan,L
12,12,high,TRUE,dog,TRUE,4673,cat,bird,dog,R
12,13,low,TRUE,swan,TRUE,2521,swan,leopard,rooster,L
12,14,high,TRUE,horse,TRUE,3372,horse,pig,cow,L
12,15,low,TRUE,squirrel,TRUE,1607,raccoon,squirrel,peacock,M
12,16,high,TRUE,duck,TRUE,2540,elephant,duck,fish,M
12,17,low,TRUE,squirrel,TRUE,1692,peacock,squirrel,raccoon,M
12,18,high,TRUE,bird,TRUE,1677,dog,bird,cat,M
12,19,low,TRUE,lobster,TRUE,3256,lobster,rhinoceros,donkey,L
12,20,high,TRUE,horse,TRUE,4444,horse,pig,cow,L
12,21,low,TRUE,rhinoceros,TRUE,3818,lobster,rhinoceros,donkey,M
12,22,high,TRUE,dog,TRUE,2854,dog,cat,bird,L
12,23,low,TRUE,leopard,FALSE,2851,rooster,swan,leopard,M
12,24,high,TRUE,cow,FALSE,3360,horse,cow,pig,L
12,25,low,TRUE,peacock,TRUE,3301,peacock,raccoon,squirrel,L
12,26,high,TRUE,duck,TRUE,6218,elephant,duck,fish,M
12,27,low,TRUE,lobster,TRUE,4629,lobster,rhinoceros,donkey,L
12,28,high,TRUE,elephant,TRUE,3618,elephant,duck,fish,L
12,29,low,TRUE,rhinoceros,TRUE,3999,lobster,rhinoceros,donkey,M
12,30,high,TRUE,pig,TRUE,2439,pig,cow,horse,L
12,31,low,TRUE,peacock,TRUE,4059,squirrel,peacock,raccoon,M
12,32,high,TRUE,cow,FALSE,2573,pig,horse,cow,M
12,33,low,TRUE,swan,TRUE,4355,leopard,swan,rooster,M
12,34,high,TRUE,cat,TRUE,5841,dog,cat,bird,M
12,35,low,TRUE,donkey,TRUE,5556,rhinoceros,donkey,lobster,M
12,36,high,TRUE,bird,TRUE,2420,dog,cat,bird,R
12,37,low,TRUE,leopard,TRUE,4586,swan,leopard,rooster,M
12,38,high,TRUE,elephant,TRUE,3843,elephant,duck,fish,L
12,39,low,TRUE,rooster,FALSE,9238,rooster,swan,leopard,R
12,40,high,TRUE,fish,TRUE,2737,duck,elephant,fish,R
13,1,practice,FALSE,apple,FALSE,6907,apple,orange,banana,R
13,2,practice,FALSE,artichoke,TRUE,2060,artichoke,onion,asparagus,L
13,3,practice,FALSE,apple,TRUE,2261,apple,orange,banana,L
13,4,practice,FALSE,artichoke,TRUE,8377,artichoke,onion,asparagus,L
13,5,high,TRUE,bird,TRUE,4903,bird,dog,cat,L
13,6,low,TRUE,donkey,TRUE,2940,donkey,rhinoceros,lobster,L
13,7,high,TRUE,horse,TRUE,1646,horse,pig,cow,L
13,8,low,TRUE,swan,TRUE,2534,leopard,swan,rooster,M
13,9,high,TRUE,pig,TRUE,2449,pig,horse,cow,L
13,10,low,TRUE,leopard,FALSE,3409,swan,rooster,leopard,L
13,11,high,TRUE,elephant,TRUE,2227,fish,duck,elephant,R
13,12,low,TRUE,rhinoceros,FALSE,3086,rhinoceros,lobster,donkey,R
13,13,high,TRUE,duck,TRUE,3675,duck,fish,elephant,L
13,14,low,TRUE,peacock,TRUE,64648,peacock,raccoon,squirrel,L
13,15,high,TRUE,fish,TRUE,2879,elephant,duck,fish,R
13,16,low,TRUE,peacock,TRUE,2855,squirrel,raccoon,peacock,R
13,17,high,TRUE,cat,TRUE,2949,cat,bird,dog,L
13,18,low,TRUE,rooster,TRUE,643535,leopard,swan,rooster,R
14,1,practice,FALSE,apple,FALSE,6752,apple,banana,orange,R
14,2,practice,FALSE,apple,TRUE,1875,orange,banana,apple,R
14,3,practice,FALSE,artichoke,TRUE,2962,artichoke,asparagus,onion,L
14,4,practice,FALSE,artichoke,TRUE,10692,artichoke,onion,asparagus,L
14,5,practice,FALSE,apple,TRUE,2072,apple,banana,orange,L
14,6,practice,FALSE,apple,TRUE,12123,apple,banana,orange,L
14,7,practice,FALSE,artichoke,TRUE,1605,asparagus,artichoke,onion,M
14,8,practice,FALSE,artichoke,TRUE,1563,onion,artichoke,asparagus,M
14,9,low,TRUE,swan,TRUE,11010,swan,leopard,rooster,L
14,10,low,TRUE,leopard,FALSE,5673,leopard,swan,rooster,R
14,11,high,TRUE,elephant,TRUE,4237,duck,fish,elephant,R
14,12,high,TRUE,cat,FALSE,4056,dog,bird,cat,L
14,13,low,TRUE,swan,FALSE,4338,swan,leopard,rooster,M
14,14,low,TRUE,leopard,FALSE,25401,swan,rooster,leopard,L
14,15,high,TRUE,bird,TRUE,4106,cat,bird,dog,M
14,16,high,TRUE,pig,TRUE,2605,pig,cow,horse,L
14,17,low,TRUE,raccoon,FALSE,3978,peacock,squirrel,raccoon,M
14,18,low,TRUE,rhinoceros,FALSE,1682,donkey,lobster,rhinoceros,M
14,19,high,TRUE,cow,FALSE,2409,pig,cow,horse,L
14,20,high,TRUE,fish,FALSE,2624,fish,elephant,duck,R
14,21,low,TRUE,rhinoceros,FALSE,4142,lobster,rhinoceros,donkey,L
14,22,low,TRUE,lobster,TRUE,1910,rhinoceros,donkey,lobster,R
14,23,high,TRUE,cow,TRUE,4505,horse,pig,cow,R
14,24,high,TRUE,horse,FALSE,1764,horse,pig,cow,M
14,25,low,TRUE,squirrel,TRUE,16637,squirrel,peacock,raccoon,L
14,26,low,TRUE,peacock,TRUE,5390,squirrel,raccoon,peacock,R
14,27,high,TRUE,bird,FALSE,2330,dog,cat,bird,L
14,28,high,TRUE,cat,TRUE,2359,bird,dog,cat,R
14,29,low,TRUE,donkey,FALSE,4442,rhinoceros,lobster,donkey,M
14,30,low,TRUE,squirrel,TRUE,9057,peacock,raccoon,squirrel,R
14,31,high,TRUE,cat,TRUE,4075,cat,bird,dog,L
14,32,high,TRUE,dog,TRUE,8082,dog,bird,cat,L
14,33,low,TRUE,lobster,FALSE,1687,lobster,rhinoceros,donkey,M
14,34,low,TRUE,lobster,TRUE,6790,donkey,rhinoceros,lobster,R
14,35,high,TRUE,fish,TRUE,3114,duck,fish,elephant,M
14,36,high,TRUE,bird,TRUE,14829,dog,cat,bird,R
14,37,low,TRUE,squirrel,FALSE,1626,peacock,raccoon,squirrel,M
14,38,low,TRUE,peacock,TRUE,2760,squirrel,raccoon,peacock,R
14,39,high,TRUE,duck,TRUE,51275,fish,elephant,duck,R
14,40,high,TRUE,duck,FALSE,24187,duck,elephant,fish,R
14,41,low,TRUE,lobster,FALSE,9828,donkey,lobster,rhinoceros,L
14,42,low,TRUE,donkey,FALSE,2076,donkey,lobster,rhinoceros,M
14,43,high,TRUE,elephant,FALSE,2771,elephant,fish,duck,M
14,44,low,TRUE,swan,FALSE,6432,swan,rooster,leopard,R
14,45,high,TRUE,horse,FALSE,1654,pig,horse,cow,L
14,46,low,TRUE,rooster,TRUE,1676,swan,rooster,leopard,M
14,47,high,TRUE,elephant,FALSE,1532,fish,duck,elephant,L
14,48,low,TRUE,swan,FALSE,2319,leopard,swan,rooster,R
14,49,high,TRUE,bird,TRUE,254083,bird,dog,cat,L
14,50,low,TRUE,rhinoceros,FALSE,311312,lobster,donkey,rhinoceros,M
14,51,high,TRUE,duck,TRUE,1962,fish,elephant,duck,R
14,52,low,TRUE,raccoon,TRUE,2116,raccoon,squirrel,peacock,L
15,1,practice,FALSE,apple,FALSE,5046,apple,orange,banana,M
15,2,practice,FALSE,apple,FALSE,1526,banana,orange,apple,L
15,3,practice,FALSE,artichoke,FALSE,2866,onion,artichoke,asparagus,R
15,4,practice,FALSE,artichoke,TRUE,3963,asparagus,onion,artichoke,R
15,5,practice,FALSE,apple,TRUE,2017,banana,orange,apple,R
15,6,practice,FALSE,apple,TRUE,2494,apple,orange,banana,L
15,7,practice,FALSE,artichoke,TRUE,3197,onion,asparagus,artichoke,R
15,8,low,TRUE,lobster,FALSE,5348,rhinoceros,donkey,lobster,L
15,9,high,TRUE,pig,TRUE,3409,horse,cow,pig,R
15,10,high,TRUE,cat,FALSE,2811,bird,cat,dog,R
15,11,low,TRUE,squirrel,TRUE,3684,raccoon,peacock,squirrel,R
15,12,low,TRUE,donkey,TRUE,3607,lobster,donkey,rhinoceros,M
15,13,high,TRUE,cat,TRUE,3378,cat,dog,bird,L
15,14,high,TRUE,cat,FALSE,2379,dog,cat,bird,R
15,15,low,TRUE,rooster,FALSE,4259,rooster,leopard,swan,R
15,16,low,TRUE,swan,TRUE,2486,rooster,swan,leopard,M
15,17,high,TRUE,fish,TRUE,3426,fish,duck,elephant,L
15,18,high,TRUE,duck,TRUE,2826,duck,elephant,fish,L
15,19,low,TRUE,rooster,FALSE,6834,swan,leopard,rooster,M
15,20,low,TRUE,lobster,FALSE,2844,rhinoceros,donkey,lobster,L
15,21,high,TRUE,cat,FALSE,3860,bird,dog,cat,L
15,22,high,TRUE,elephant,TRUE,2922,elephant,duck,fish,L
15,23,low,TRUE,donkey,FALSE,5306,lobster,donkey,rhinoceros,L
15,24,low,TRUE,leopard,TRUE,3334,rooster,swan,leopard,R
15,25,high,TRUE,pig,FALSE,4493,horse,cow,pig,M
15,26,high,TRUE,elephant,TRUE,3113,elephant,duck,fish,L
15,27,low,TRUE,leopard,FALSE,4753,leopard,swan,rooster,M
15,28,low,TRUE,rhinoceros,TRUE,1638,rhinoceros,lobster,donkey,L
15,29,high,TRUE,duck,TRUE,3066,duck,fish,elephant,L
15,30,high,TRUE,pig,TRUE,1725,pig,horse,cow,L
15,31,low,TRUE,swan,FALSE,6821,rooster,swan,leopard,R
15,32,low,TRUE,swan,TRUE,5169,rooster,leopard,swan,R
15,33,high,TRUE,elephant,TRUE,4555,elephant,duck,fish,L
15,34,high,TRUE,dog,TRUE,4584,dog,cat,bird,L
15,35,low,TRUE,leopard,TRUE,5556,rooster,leopard,swan,M
15,36,high,TRUE,bird,TRUE,2772,cat,dog,bird,R
15,37,high,TRUE,bird,TRUE,2110,bird,cat,dog,L
15,38,low,TRUE,rhinoceros,TRUE,1942,donkey,rhinoceros,lobster,M
15,39,low,TRUE,leopard,FALSE,3339,rooster,leopard,swan,L
15,40,high,TRUE,bird,TRUE,2563,cat,dog,bird,R
15,41,high,TRUE,duck,TRUE,5166,elephant,duck,fish,M
15,42,low,TRUE,lobster,TRUE,2532,rhinoceros,lobster,donkey,M
15,43,low,TRUE,raccoon,FALSE,5031,squirrel,raccoon,peacock,R
15,44,high,TRUE,duck,TRUE,6955,elephant,duck,fish,M
15,45,high,TRUE,cow,FALSE,3404,cow,horse,pig,M
15,46,low,TRUE,donkey,TRUE,4649,lobster,rhinoceros,donkey,R
15,47,low,TRUE,donkey,TRUE,5756,donkey,rhinoceros,lobster,L
15,48,high,TRUE,dog,TRUE,3104,dog,cat,bird,L
15,49,high,TRUE,horse,TRUE,4206,cow,horse,pig,M
15,50,low,TRUE,raccoon,FALSE,3501,peacock,raccoon,squirrel,L
15,51,low,TRUE,rooster,TRUE,3321,rooster,leopard,swan,L
15,52,high,TRUE,cow,TRUE,4208,pig,horse,cow,R
15,53,low,TRUE,squirrel,TRUE,7644,squirrel,peacock,raccoon,L
15,54,high,TRUE,elephant,TRUE,5785,duck,elephant,fish,M
15,55,low,TRUE,raccoon,TRUE,4701,peacock,raccoon,squirrel,M
15,56,high,TRUE,fish,TRUE,2830,fish,duck,elephant,L
15,57,low,TRUE,peacock,TRUE,17116,peacock,raccoon,squirrel,L
15,58,high,TRUE,dog,FALSE,4728,bird,dog,cat,L
15,59,low,TRUE,rhinoceros,FALSE,4754,rhinoceros,lobster,donkey,M
15,60,high,TRUE,horse,TRUE,14110,pig,cow,horse,R
15,61,low,TRUE,lobster,FALSE,7318,donkey,lobster,rhinoceros,R
15,62,high,TRUE,horse,FALSE,3717,cow,horse,pig,R
15,63,low,TRUE,swan,TRUE,4245,rooster,swan,leopard,M
15,64,high,TRUE,cow,FALSE,2511,cow,horse,pig,R
15,65,low,TRUE,peacock,FALSE,6155,peacock,raccoon,squirrel,M
16,1,practice,FALSE,apple,FALSE,2549,banana,orange,apple,L
16,2,practice,FALSE,artichoke,FALSE,2621,asparagus,onion,artichoke,M
16,3,practice,FALSE,apple,FALSE,1941,banana,orange,apple,M
16,4,practice,FALSE,artichoke,TRUE,4448,asparagus,artichoke,onion,M
16,5,low,TRUE,peacock,FALSE,4511,raccoon,squirrel,peacock,L
16,6,high,TRUE,duck,TRUE,2382,fish,duck,elephant,M
16,7,low,TRUE,raccoon,FALSE,3858,raccoon,squirrel,peacock,M
16,8,high,TRUE,cow,TRUE,3177,horse,pig,cow,R
16,9,low,TRUE,rooster,FALSE,1976,rooster,swan,leopard,M
16,10,high,TRUE,horse,FALSE,1947,horse,cow,pig,M
16,11,low,TRUE,swan,FALSE,2211,leopard,swan,rooster,L
16,12,high,TRUE,horse,TRUE,2331,cow,pig,horse,R
16,13,low,TRUE,rhinoceros,TRUE,4755,lobster,donkey,rhinoceros,R
16,14,high,TRUE,elephant,TRUE,2009,duck,elephant,fish,M
16,15,low,TRUE,squirrel,FALSE,2077,raccoon,squirrel,peacock,L
16,16,high,TRUE,fish,TRUE,2906,fish,elephant,duck,L
16,17,low,TRUE,squirrel,TRUE,2376,peacock,squirrel,raccoon,M
16,18,high,TRUE,cat,TRUE,NA,dog,bird,cat,R
16,19,low,TRUE,rooster,TRUE,1733,leopard,swan,rooster,R
16,20,high,TRUE,pig,TRUE,3203,horse,cow,pig,R
16,21,low,TRUE,leopard,TRUE,2421,swan,leopard,rooster,M
16,22,high,TRUE,cat,TRUE,3543,bird,dog,cat,R
16,23,low,TRUE,peacock,FALSE,2745,squirrel,peacock,raccoon,L
16,24,high,TRUE,dog,FALSE,2288,bird,cat,dog,L
16,25,low,TRUE,lobster,TRUE,3175,donkey,lobster,rhinoceros,M
16,26,high,TRUE,fish,FALSE,NA,fish,duck,elephant,R
16,27,low,TRUE,donkey,FALSE,2425,rhinoceros,lobster,donkey,M
16,28,high,TRUE,dog,FALSE,5327,dog,bird,cat,M
16,29,low,TRUE,donkey,FALSE,2784,lobster,rhinoceros,donkey,L
16,30,high,TRUE,duck,FALSE,3774,elephant,duck,fish,L
16,31,low,TRUE,swan,TRUE,5657,leopard,swan,rooster,M
16,32,high,TRUE,elephant,FALSE,2353,fish,duck,elephant,L
16,33,low,TRUE,rhinoceros,FALSE,3135,lobster,donkey,rhinoceros,L
16,34,high,TRUE,pig,TRUE,4311,cow,pig,horse,M
16,35,low,TRUE,raccoon,FALSE,1659,peacock,squirrel,raccoon,M
16,36,high,TRUE,bird,FALSE,2604,bird,cat,dog,M
16,37,low,TRUE,lobster,TRUE,5417,donkey,rhinoceros,lobster,R
16,38,high,TRUE,bird,TRUE,2948,bird,dog,cat,L
16,39,low,TRUE,leopard,TRUE,2844,swan,leopard,rooster,M
16,40,high,TRUE,cow,TRUE,2918,pig,horse,cow,R
17,1,practice,FALSE,apple,FALSE,5411,orange,banana,apple,M
17,2,practice,FALSE,artichoke,TRUE,2255,onion,artichoke,asparagus,M
17,3,practice,FALSE,apple,FALSE,1600,apple,orange,banana,M
17,4,practice,FALSE,artichoke,FALSE,2513,onion,asparagus,artichoke,M
17,5,high,TRUE,cow,TRUE,3000,horse,cow,pig,M
17,6,low,TRUE,leopard,FALSE,1925,rooster,swan,leopard,L
17,7,high,TRUE,dog,TRUE,2061,dog,bird,cat,L
17,8,low,TRUE,rhinoceros,TRUE,2313,donkey,lobster,rhinoceros,R
17,9,high,TRUE,pig,TRUE,1765,horse,pig,cow,M
17,10,low,TRUE,squirrel,FALSE,2078,raccoon,squirrel,peacock,L
17,11,high,TRUE,horse,FALSE,NA,horse,cow,pig,M
17,12,low,TRUE,donkey,TRUE,1643,rhinoceros,lobster,donkey,R
17,13,high,TRUE,horse,TRUE,1565,pig,horse,cow,M
17,14,low,TRUE,leopard,FALSE,1724,rooster,swan,leopard,M
17,15,high,TRUE,cow,FALSE,1749,horse,pig,cow,M
17,16,low,TRUE,lobster,FALSE,5299,rhinoceros,donkey,lobster,M
17,17,high,TRUE,fish,TRUE,2897,duck,fish,elephant,M
17,18,low,TRUE,peacock,TRUE,2495,raccoon,peacock,squirrel,M
17,19,high,TRUE,fish,FALSE,2973,fish,duck,elephant,M
17,20,low,TRUE,peacock,TRUE,3669,peacock,squirrel,raccoon,L
17,21,high,TRUE,duck,TRUE,3044,elephant,duck,fish,M
17,22,low,TRUE,swan,FALSE,2130,rooster,leopard,swan,L
17,23,high,TRUE,elephant,TRUE,3714,duck,elephant,fish,M
17,24,low,TRUE,rhinoceros,FALSE,1865,rhinoceros,donkey,lobster,M
17,25,high,TRUE,bird,TRUE,3621,bird,dog,cat,L
17,26,low,TRUE,rooster,TRUE,3013,rooster,leopard,swan,L
17,27,high,TRUE,dog,FALSE,2216,bird,dog,cat,L
17,28,low,TRUE,raccoon,TRUE,1798,peacock,raccoon,squirrel,M
17,29,high,TRUE,cat,TRUE,3270,cat,dog,bird,L
17,30,low,TRUE,swan,FALSE,2264,rooster,leopard,swan,M
17,31,high,TRUE,elephant,FALSE,2948,elephant,fish,duck,M
17,32,low,TRUE,lobster,FALSE,2784,donkey,rhinoceros,lobster,L
17,33,high,TRUE,duck,FALSE,2847,duck,fish,elephant,R
17,34,low,TRUE,raccoon,FALSE,3447,squirrel,peacock,raccoon,L
17,35,high,TRUE,pig,FALSE,1999,horse,pig,cow,R
17,36,low,TRUE,squirrel,TRUE,4378,raccoon,peacock,squirrel,R
17,37,high,TRUE,cat,TRUE,2249,dog,cat,bird,M
17,38,low,TRUE,donkey,FALSE,2294,rhinoceros,lobster,donkey,L
17,39,high,TRUE,bird,TRUE,2378,dog,bird,cat,M
17,40,low,TRUE,rooster,TRUE,1864,swan,rooster,leopard,M
18,1,practice,FALSE,apple,TRUE,4128,orange,banana,apple,R
18,2,practice,FALSE,artichoke,TRUE,1879,artichoke,asparagus,onion,L
18,3,practice,FALSE,apple,TRUE,1641,apple,banana,orange,L
18,4,practice,FALSE,artichoke,FALSE,3452,asparagus,onion,artichoke,M
18,5,low,TRUE,rhinoceros,FALSE,8184,donkey,rhinoceros,lobster,R
18,6,high,TRUE,horse,TRUE,1822,pig,cow,horse,R
18,7,low,TRUE,squirrel,FALSE,2240,peacock,raccoon,squirrel,M
18,8,high,TRUE,horse,TRUE,1609,cow,pig,horse,R
18,9,low,TRUE,rooster,TRUE,2095,rooster,leopard,swan,L
18,10,high,TRUE,cat,TRUE,3003,cat,bird,dog,L
18,11,low,TRUE,rooster,TRUE,2026,leopard,rooster,swan,M
18,12,high,TRUE,duck,TRUE,2146,fish,duck,elephant,M
18,13,low,TRUE,lobster,TRUE,3975,rhinoceros,lobster,donkey,M
18,14,high,TRUE,bird,TRUE,2130,cat,dog,bird,R
18,15,low,TRUE,leopard,TRUE,2824,leopard,rooster,swan,L
18,16,high,TRUE,elephant,TRUE,NA,fish,elephant,duck,M
18,17,low,TRUE,donkey,TRUE,3220,lobster,rhinoceros,donkey,R
18,18,high,TRUE,dog,TRUE,2771,cat,bird,dog,R
18,19,low,TRUE,leopard,TRUE,2730,leopard,swan,rooster,L
18,20,high,TRUE,pig,TRUE,NA,pig,horse,cow,L
18,21,low,TRUE,raccoon,TRUE,2728,squirrel,peacock,raccoon,R
18,22,high,TRUE,dog,TRUE,1536,cat,dog,bird,M
18,23,low,TRUE,swan,TRUE,6195,rooster,swan,leopard,M
18,24,high,TRUE,cat,FALSE,5304,bird,cat,dog,R
18,25,low,TRUE,squirrel,FALSE,3146,squirrel,raccoon,peacock,M
18,26,high,TRUE,fish,TRUE,3634,duck,elephant,fish,R
18,27,low,TRUE,lobster,TRUE,2960,lobster,donkey,rhinoceros,L
18,28,high,TRUE,duck,TRUE,3716,duck,fish,elephant,L
18,29,low,TRUE,raccoon,TRUE,3731,squirrel,peacock,raccoon,R
18,30,high,TRUE,cow,TRUE,10176,pig,cow,horse,M
18,31,low,TRUE,swan,FALSE,2020,leopard,swan,rooster,L
18,32,high,TRUE,pig,TRUE,2042,pig,cow,horse,L
18,33,low,TRUE,peacock,TRUE,10641,raccoon,peacock,squirrel,M
18,34,high,TRUE,elephant,TRUE,6117,fish,duck,elephant,R
18,35,low,TRUE,rhinoceros,TRUE,2458,donkey,lobster,rhinoceros,R
18,36,high,TRUE,bird,TRUE,1699,bird,cat,dog,L
18,37,low,TRUE,peacock,TRUE,2559,peacock,raccoon,squirrel,L
18,38,high,TRUE,cow,TRUE,4538,horse,cow,pig,M
18,39,low,TRUE,donkey,TRUE,3356,lobster,rhinoceros,donkey,R
18,40,high,TRUE,fish,TRUE,3786,fish,duck,elephant,L
19,1,practice,FALSE,apple,FALSE,5256,orange,apple,banana,L
19,2,practice,FALSE,artichoke,TRUE,1685,asparagus,artichoke,onion,M
19,3,practice,FALSE,apple,FALSE,2189,apple,banana,orange,R
19,4,practice,FALSE,artichoke,FALSE,1793,artichoke,onion,asparagus,M
19,5,low,TRUE,rhinoceros,FALSE,2071,donkey,rhinoceros,lobster,L
19,6,high,TRUE,elephant,FALSE,2540,elephant,fish,duck,M
19,7,low,TRUE,rhinoceros,FALSE,2360,lobster,rhinoceros,donkey,L
19,8,high,TRUE,bird,FALSE,1770,dog,bird,cat,L
19,9,low,TRUE,lobster,FALSE,4065,rhinoceros,lobster,donkey,L
19,10,high,TRUE,fish,TRUE,3197,fish,elephant,duck,L
19,11,low,TRUE,rooster,TRUE,2842,rooster,leopard,swan,L
19,12,high,TRUE,cat,TRUE,3567,cat,bird,dog,L
19,13,low,TRUE,donkey,FALSE,4914,rhinoceros,lobster,donkey,L
19,14,high,TRUE,cat,FALSE,3172,bird,cat,dog,L
19,15,low,TRUE,donkey,FALSE,1524,lobster,rhinoceros,donkey,M
19,16,high,TRUE,dog,TRUE,10034,cat,bird,dog,R
19,17,low,TRUE,raccoon,TRUE,8723,squirrel,raccoon,peacock,M
19,18,high,TRUE,dog,FALSE,2517,cat,bird,dog,M
19,19,low,TRUE,rooster,FALSE,1544,rooster,leopard,swan,R
19,20,high,TRUE,pig,TRUE,2541,pig,cow,horse,L
19,21,low,TRUE,leopard,FALSE,4014,swan,leopard,rooster,L
19,22,high,TRUE,duck,FALSE,3397,elephant,fish,duck,M
19,23,low,TRUE,raccoon,TRUE,3119,raccoon,squirrel,peacock,L
19,24,high,TRUE,cow,FALSE,2893,horse,pig,cow,M
19,25,low,TRUE,peacock,TRUE,2122,raccoon,peacock,squirrel,M
19,26,high,TRUE,horse,FALSE,2257,pig,cow,horse,L
19,27,low,TRUE,lobster,FALSE,2496,lobster,donkey,rhinoceros,M
19,28,high,TRUE,cow,FALSE,3010,pig,cow,horse,L
19,29,low,TRUE,leopard,TRUE,NA,rooster,leopard,swan,M
19,30,high,TRUE,pig,TRUE,3979,cow,pig,horse,M
19,31,low,TRUE,peacock,FALSE,2454,squirrel,raccoon,peacock,M
19,32,high,TRUE,fish,TRUE,3518,fish,duck,elephant,L
19,33,low,TRUE,swan,FALSE,4349,swan,rooster,leopard,R
19,34,high,TRUE,horse,TRUE,2304,cow,pig,horse,R
19,35,low,TRUE,squirrel,FALSE,2958,peacock,raccoon,squirrel,M
19,36,high,TRUE,elephant,TRUE,2563,elephant,duck,fish,L
19,37,low,TRUE,swan,FALSE,1979,rooster,swan,leopard,L
19,38,high,TRUE,duck,FALSE,1647,elephant,duck,fish,L
19,39,low,TRUE,squirrel,TRUE,5028,peacock,raccoon,squirrel,R
19,40,high,TRUE,bird,TRUE,8345,cat,dog,bird,R
20,1,practice,FALSE,apple,TRUE,1762,apple,orange,banana,L
20,2,practice,FALSE,artichoke,FALSE,2891,asparagus,onion,artichoke,M
20,3,practice,FALSE,apple,TRUE,1792,apple,banana,orange,L
20,4,practice,FALSE,artichoke,FALSE,2703,artichoke,onion,asparagus,M
20,5,high,TRUE,elephant,FALSE,4042,fish,duck,elephant,M
20,6,low,TRUE,squirrel,TRUE,5810,squirrel,raccoon,peacock,L
20,7,high,TRUE,cow,TRUE,4791,pig,cow,horse,M
20,8,low,TRUE,leopard,TRUE,3099,swan,leopard,rooster,M
20,9,high,TRUE,pig,TRUE,2728,horse,cow,pig,R
20,10,low,TRUE,raccoon,FALSE,2723,raccoon,peacock,squirrel,R
20,11,high,TRUE,cow,FALSE,1988,pig,cow,horse,L
20,12,low,TRUE,squirrel,FALSE,2233,peacock,squirrel,raccoon,L
20,13,high,TRUE,cat,FALSE,5700,dog,cat,bird,L
20,14,low,TRUE,swan,FALSE,2525,leopard,swan,rooster,R
20,15,high,TRUE,duck,TRUE,5732,elephant,duck,fish,M
20,16,low,TRUE,donkey,FALSE,2102,lobster,donkey,rhinoceros,R
20,17,high,TRUE,dog,FALSE,4496,dog,bird,cat,R
20,18,low,TRUE,rhinoceros,TRUE,7210,donkey,lobster,rhinoceros,R
20,19,high,TRUE,elephant,TRUE,1737,elephant,duck,fish,L
20,20,low,TRUE,lobster,FALSE,1919,lobster,rhinoceros,donkey,M
20,21,high,TRUE,duck,FALSE,3148,elephant,fish,duck,L
20,22,low,TRUE,lobster,TRUE,1565,rhinoceros,lobster,donkey,M
20,23,high,TRUE,pig,TRUE,1993,horse,pig,cow,M
20,24,low,TRUE,donkey,FALSE,1965,rhinoceros,lobster,donkey,M
20,25,high,TRUE,fish,FALSE,2995,elephant,duck,fish,L
20,26,low,TRUE,rooster,FALSE,1807,swan,leopard,rooster,M
20,27,high,TRUE,cat,FALSE,5548,dog,cat,bird,R
20,28,low,TRUE,raccoon,TRUE,1719,squirrel,raccoon,peacock,M
20,29,high,TRUE,fish,TRUE,2525,duck,fish,elephant,M
20,30,low,TRUE,rooster,FALSE,11803,leopard,rooster,swan,L
20,31,high,TRUE,bird,FALSE,1649,bird,dog,cat,M
20,32,low,TRUE,swan,FALSE,1540,leopard,rooster,swan,M
20,33,high,TRUE,horse,TRUE,2575,pig,horse,cow,M
20,34,low,TRUE,peacock,TRUE,4705,squirrel,raccoon,peacock,R
20,35,high,TRUE,dog,FALSE,2401,dog,cat,bird,R
20,36,low,TRUE,leopard,FALSE,10454,rooster,leopard,swan,L
20,37,high,TRUE,horse,FALSE,5839,horse,cow,pig,R
20,38,low,TRUE,peacock,TRUE,1701,squirrel,peacock,raccoon,M
20,39,high,TRUE,bird,TRUE,15596,dog,bird,cat,M
20,40,low,TRUE,rhinoceros,FALSE,1560,rhinoceros,lobster,donkey,R
21,1,practice,FALSE,apple,FALSE,2177,banana,apple,orange,R
21,2,practice,FALSE,artichoke,TRUE,5139,artichoke,asparagus,onion,L
21,3,practice,FALSE,apple,TRUE,3378,apple,banana,orange,L
21,4,practice,FALSE,artichoke,FALSE,1953,asparagus,artichoke,onion,L
21,5,low,TRUE,raccoon,TRUE,6422,peacock,raccoon,squirrel,M
21,6,high,TRUE,duck,TRUE,2768,duck,fish,elephant,L
21,7,low,TRUE,squirrel,TRUE,4249,raccoon,peacock,squirrel,R
21,8,high,TRUE,fish,TRUE,2737,duck,elephant,fish,R
21,9,low,TRUE,rhinoceros,TRUE,2721,donkey,rhinoceros,lobster,M
21,10,high,TRUE,fish,FALSE,3572,fish,elephant,duck,M
21,11,low,TRUE,lobster,TRUE,3301,rhinoceros,donkey,lobster,R
21,12,high,TRUE,horse,TRUE,2374,horse,cow,pig,L
21,13,low,TRUE,leopard,TRUE,26245,rooster,leopard,swan,M
21,14,high,TRUE,pig,TRUE,2305,cow,pig,horse,M
21,15,low,TRUE,rhinoceros,FALSE,2566,lobster,rhinoceros,donkey,L
21,16,high,TRUE,dog,TRUE,3919,bird,dog,cat,M
21,17,low,TRUE,squirrel,TRUE,7770,peacock,raccoon,squirrel,R
21,18,high,TRUE,dog,TRUE,26047,cat,dog,bird,M
21,19,low,TRUE,leopard,TRUE,2995,rooster,swan,leopard,R
21,20,high,TRUE,bird,FALSE,8657,dog,bird,cat,R
21,21,low,TRUE,raccoon,TRUE,4360,raccoon,squirrel,peacock,L
21,22,high,TRUE,duck,TRUE,3466,duck,fish,elephant,L
21,23,low,TRUE,swan,TRUE,2310,swan,rooster,leopard,L
21,24,high,TRUE,cow,TRUE,11175,cow,horse,pig,L
21,25,low,TRUE,lobster,TRUE,2318,donkey,lobster,rhinoceros,M
21,26,high,TRUE,elephant,TRUE,2880,elephant,fish,duck,L
21,27,low,TRUE,donkey,TRUE,22989,rhinoceros,lobster,donkey,R
21,28,high,TRUE,cat,TRUE,3080,dog,cat,bird,M
21,29,low,TRUE,rooster,TRUE,3153,swan,rooster,leopard,M
21,30,high,TRUE,elephant,TRUE,3423,fish,elephant,duck,M
21,31,low,TRUE,peacock,TRUE,23411,peacock,squirrel,raccoon,L
21,32,high,TRUE,cat,TRUE,2196,dog,bird,cat,R
21,33,low,TRUE,swan,FALSE,10809,leopard,swan,rooster,R
21,34,high,TRUE,cow,TRUE,8606,cow,horse,pig,L
21,35,low,TRUE,rooster,TRUE,3442,swan,rooster,leopard,M
21,36,high,TRUE,horse,FALSE,3821,cow,pig,horse,M
21,37,low,TRUE,peacock,TRUE,49510,raccoon,squirrel,peacock,R
21,38,high,TRUE,pig,TRUE,20432,horse,cow,pig,R
21,39,low,TRUE,donkey,TRUE,6692,lobster,donkey,rhinoceros,M
21,40,high,TRUE,bird,TRUE,7646,cat,bird,dog,M
22,1,practice,FALSE,apple,FALSE,2413,banana,orange,apple,M
22,2,practice,FALSE,artichoke,FALSE,2099,onion,artichoke,asparagus,R
22,3,practice,FALSE,apple,FALSE,10544,banana,orange,apple,L
22,4,practice,FALSE,artichoke,TRUE,2323,asparagus,onion,artichoke,R
22,5,low,TRUE,peacock,TRUE,11894,raccoon,peacock,squirrel,M
22,6,high,TRUE,bird,TRUE,2733,dog,bird,cat,M
22,7,low,TRUE,lobster,FALSE,1874,donkey,lobster,rhinoceros,L
22,8,high,TRUE,fish,FALSE,2400,duck,fish,elephant,R
22,9,low,TRUE,squirrel,FALSE,6064,squirrel,raccoon,peacock,R
22,10,high,TRUE,duck,FALSE,2076,elephant,fish,duck,L
22,11,low,TRUE,rhinoceros,TRUE,3201,lobster,donkey,rhinoceros,R
22,12,high,TRUE,pig,TRUE,NA,horse,cow,pig,R
22,13,low,TRUE,leopard,FALSE,2101,swan,rooster,leopard,M
22,14,high,TRUE,cow,FALSE,1914,cow,horse,pig,R
22,15,low,TRUE,raccoon,TRUE,1703,peacock,raccoon,squirrel,M
22,16,high,TRUE,horse,FALSE,2755,pig,horse,cow,R
22,17,low,TRUE,squirrel,FALSE,1892,squirrel,raccoon,peacock,M
22,18,high,TRUE,dog,FALSE,3330,cat,dog,bird,R
22,19,low,TRUE,raccoon,FALSE,1718,squirrel,peacock,raccoon,M
22,20,high,TRUE,elephant,TRUE,2269,elephant,duck,fish,L
22,21,low,TRUE,swan,FALSE,1996,leopard,rooster,swan,M
22,22,high,TRUE,dog,FALSE,2297,cat,dog,bird,L
22,23,low,TRUE,leopard,FALSE,2916,leopard,swan,rooster,M
22,24,high,TRUE,horse,FALSE,3363,horse,pig,cow,M
22,25,low,TRUE,peacock,FALSE,2113,raccoon,squirrel,peacock,L
22,26,high,TRUE,cat,TRUE,2032,cat,dog,bird,L
22,27,low,TRUE,rooster,FALSE,NA,leopard,swan,rooster,L
22,28,high,TRUE,pig,TRUE,2064,horse,pig,cow,M
22,29,low,TRUE,rhinoceros,FALSE,2074,donkey,lobster,rhinoceros,L
22,30,high,TRUE,elephant,TRUE,2595,elephant,fish,duck,L
22,31,low,TRUE,rooster,TRUE,2254,leopard,swan,rooster,R
22,32,high,TRUE,fish,FALSE,2187,fish,duck,elephant,M
22,33,low,TRUE,donkey,FALSE,1824,lobster,rhinoceros,donkey,L
22,34,high,TRUE,cow,TRUE,1571,cow,pig,horse,L
22,35,low,TRUE,lobster,FALSE,1829,donkey,lobster,rhinoceros,R
22,36,high,TRUE,cat,TRUE,2388,dog,bird,cat,R
22,37,low,TRUE,swan,TRUE,2547,swan,rooster,leopard,L
22,38,high,TRUE,bird,FALSE,1874,cat,dog,bird,M
22,39,low,TRUE,donkey,FALSE,2702,donkey,lobster,rhinoceros,R
22,40,high,TRUE,duck,FALSE,2688,elephant,fish,duck,M
23,1,practice,FALSE,apple,TRUE,9673,orange,banana,apple,R
23,2,practice,FALSE,artichoke,TRUE,7817,artichoke,onion,asparagus,L
23,3,practice,FALSE,apple,TRUE,1979,banana,apple,orange,M
23,4,practice,FALSE,artichoke,TRUE,3253,onion,artichoke,asparagus,M
23,5,low,TRUE,rhinoceros,FALSE,10123,donkey,lobster,rhinoceros,L
23,6,high,TRUE,cat,FALSE,3881,bird,dog,cat,M
23,7,low,TRUE,lobster,FALSE,3342,donkey,rhinoceros,lobster,M
23,8,high,TRUE,cow,FALSE,4416,horse,pig,cow,M
23,9,low,TRUE,lobster,FALSE,2333,donkey,rhinoceros,lobster,M
23,10,high,TRUE,cat,TRUE,3338,cat,bird,dog,L
23,11,low,TRUE,rooster,TRUE,2795,leopard,rooster,swan,M
23,12,high,TRUE,bird,FALSE,1834,dog,bird,cat,L
23,13,low,TRUE,peacock,TRUE,2487,peacock,raccoon,squirrel,L
23,14,high,TRUE,dog,FALSE,2696,cat,bird,dog,L
23,15,low,TRUE,donkey,FALSE,3235,rhinoceros,donkey,lobster,L
23,16,high,TRUE,cow,TRUE,5131,horse,cow,pig,M
23,17,low,TRUE,raccoon,FALSE,1619,squirrel,peacock,raccoon,L
23,18,high,TRUE,bird,TRUE,6155,dog,cat,bird,R
23,19,low,TRUE,squirrel,FALSE,2827,squirrel,raccoon,peacock,R
23,20,high,TRUE,pig,TRUE,2170,pig,horse,cow,L
23,21,low,TRUE,swan,TRUE,2426,swan,leopard,rooster,L
23,22,high,TRUE,elephant,TRUE,2632,fish,elephant,duck,M
23,23,low,TRUE,leopard,FALSE,1832,rooster,leopard,swan,R
23,24,high,TRUE,fish,TRUE,4215,fish,elephant,duck,L
23,25,low,TRUE,donkey,FALSE,2159,lobster,donkey,rhinoceros,L
23,26,high,TRUE,horse,TRUE,2400,cow,horse,pig,M
23,27,low,TRUE,rooster,TRUE,3634,swan,leopard,rooster,R
23,28,high,TRUE,elephant,TRUE,2524,fish,duck,elephant,R
23,29,low,TRUE,squirrel,FALSE,2479,raccoon,squirrel,peacock,R
23,30,high,TRUE,pig,TRUE,2771,horse,pig,cow,M
23,31,low,TRUE,peacock,TRUE,2034,raccoon,squirrel,peacock,R
23,32,high,TRUE,duck,FALSE,5789,duck,elephant,fish,R
23,33,low,TRUE,swan,TRUE,4967,leopard,swan,rooster,M
23,34,high,TRUE,dog,TRUE,2704,dog,bird,cat,L
23,35,low,TRUE,rhinoceros,TRUE,4478,lobster,donkey,rhinoceros,R
23,36,high,TRUE,duck,FALSE,6239,duck,elephant,fish,R
23,37,low,TRUE,leopard,FALSE,3160,leopard,rooster,swan,M
23,38,high,TRUE,horse,FALSE,2268,horse,pig,cow,M
23,39,low,TRUE,raccoon,FALSE,2906,peacock,squirrel,raccoon,L
23,40,high,TRUE,fish,TRUE,2574,duck,fish,elephant,M
24,1,practice,FALSE,apple,FALSE,5175,orange,apple,banana,R
24,2,practice,FALSE,artichoke,FALSE,7981,asparagus,artichoke,onion,L
24,3,practice,FALSE,apple,TRUE,3953,apple,orange,banana,L
24,4,practice,FALSE,artichoke,TRUE,6332,onion,artichoke,asparagus,M
24,5,high,TRUE,cat,TRUE,4847,dog,bird,cat,R
24,6,low,TRUE,squirrel,FALSE,4992,peacock,squirrel,raccoon,R
24,7,high,TRUE,elephant,TRUE,6123,elephant,duck,fish,L
24,8,low,TRUE,leopard,TRUE,11497,leopard,rooster,swan,L
24,9,high,TRUE,cow,FALSE,6338,pig,horse,cow,M
24,10,low,TRUE,rhinoceros,TRUE,5153,rhinoceros,donkey,lobster,L
24,11,high,TRUE,bird,TRUE,4984,bird,dog,cat,L
24,12,low,TRUE,peacock,TRUE,3400,squirrel,raccoon,peacock,R
24,13,high,TRUE,dog,TRUE,4261,dog,bird,cat,L
24,14,low,TRUE,rooster,FALSE,4495,swan,leopard,rooster,L
24,15,high,TRUE,fish,TRUE,4862,elephant,duck,fish,R
24,16,low,TRUE,raccoon,FALSE,5882,squirrel,raccoon,peacock,L
24,17,high,TRUE,cat,TRUE,5606,bird,dog,cat,R
24,18,low,TRUE,rooster,TRUE,25645,rooster,leopard,swan,L
24,19,high,TRUE,pig,TRUE,6670,horse,pig,cow,M
24,20,low,TRUE,raccoon,TRUE,6980,squirrel,raccoon,peacock,M
24,21,high,TRUE,elephant,TRUE,6884,elephant,duck,fish,L
24,22,low,TRUE,lobster,TRUE,4740,rhinoceros,donkey,lobster,R
24,23,high,TRUE,horse,TRUE,3597,pig,horse,cow,M
24,24,low,TRUE,rhinoceros,TRUE,5322,donkey,rhinoceros,lobster,M
24,25,high,TRUE,duck,TRUE,3487,duck,elephant,fish,L
24,26,low,TRUE,lobster,TRUE,4040,donkey,lobster,rhinoceros,M
24,27,high,TRUE,dog,TRUE,5842,dog,cat,bird,L
24,28,low,TRUE,swan,FALSE,4787,rooster,swan,leopard,L
24,29,high,TRUE,horse,FALSE,4047,cow,pig,horse,L
24,30,low,TRUE,squirrel,TRUE,9672,peacock,raccoon,squirrel,R
24,31,high,TRUE,bird,TRUE,4097,bird,cat,dog,L
24,32,low,TRUE,leopard,FALSE,4308,rooster,swan,leopard,L
24,33,high,TRUE,pig,TRUE,4393,pig,cow,horse,L
24,34,low,TRUE,swan,TRUE,10585,leopard,rooster,swan,R
24,35,high,TRUE,fish,TRUE,4423,fish,duck,elephant,L
24,36,low,TRUE,peacock,TRUE,4197,peacock,squirrel,raccoon,L
24,37,high,TRUE,duck,TRUE,3438,duck,fish,elephant,L
24,38,low,TRUE,donkey,TRUE,7235,rhinoceros,lobster,donkey,R
24,39,high,TRUE,cow,FALSE,6178,cow,horse,pig,M
24,40,low,TRUE,donkey,TRUE,10184,donkey,lobster,rhinoceros,L
25,1,practice,FALSE,apple,FALSE,2963,orange,apple,banana,L
25,2,practice,FALSE,artichoke,FALSE,3028,onion,artichoke,asparagus,L
25,3,practice,FALSE,apple,FALSE,3472,banana,orange,apple,M
25,4,practice,FALSE,artichoke,FALSE,1632,onion,artichoke,asparagus,L
25,5,high,TRUE,bird,TRUE,6832,bird,cat,dog,L
25,6,low,TRUE,leopard,FALSE,5852,rooster,leopard,swan,R
25,7,high,TRUE,duck,TRUE,13334,elephant,fish,duck,R
25,8,low,TRUE,lobster,TRUE,25238,donkey,rhinoceros,lobster,R
25,9,high,TRUE,cat,TRUE,2700,dog,bird,cat,R
25,10,low,TRUE,squirrel,TRUE,30670,raccoon,squirrel,peacock,M
25,11,high,TRUE,cow,FALSE,11439,horse,pig,cow,L
25,12,low,TRUE,rhinoceros,TRUE,13186,donkey,rhinoceros,lobster,M
25,13,high,TRUE,dog,TRUE,3030,bird,cat,dog,R
25,14,low,TRUE,rhinoceros,TRUE,2551,lobster,donkey,rhinoceros,R
25,15,high,TRUE,elephant,TRUE,2677,duck,elephant,fish,M
25,16,low,TRUE,peacock,TRUE,4763,raccoon,squirrel,peacock,R
25,17,high,TRUE,horse,TRUE,13389,pig,horse,cow,M
25,18,low,TRUE,raccoon,TRUE,8788,raccoon,peacock,squirrel,L
25,19,high,TRUE,bird,TRUE,5879,bird,cat,dog,L
25,20,low,TRUE,peacock,TRUE,3543,squirrel,raccoon,peacock,R
25,21,high,TRUE,pig,TRUE,5785,pig,cow,horse,L
25,22,low,TRUE,swan,TRUE,5726,leopard,rooster,swan,R
25,23,high,TRUE,pig,TRUE,5466,horse,pig,cow,M
25,24,low,TRUE,donkey,FALSE,13299,rhinoceros,donkey,lobster,L
25,25,high,TRUE,duck,TRUE,5241,fish,duck,elephant,M
25,26,low,TRUE,squirrel,TRUE,6555,raccoon,squirrel,peacock,M
25,27,high,TRUE,horse,TRUE,5669,pig,horse,cow,M
25,28,low,TRUE,rooster,FALSE,18343,rooster,leopard,swan,M
25,29,high,TRUE,cow,FALSE,14750,cow,horse,pig,M
25,30,low,TRUE,lobster,TRUE,5128,donkey,lobster,rhinoceros,M
25,31,high,TRUE,elephant,TRUE,4234,elephant,duck,fish,L
25,32,low,TRUE,leopard,TRUE,13903,rooster,swan,leopard,R
25,33,high,TRUE,dog,FALSE,5514,bird,dog,cat,R
25,34,low,TRUE,rooster,TRUE,4252,leopard,rooster,swan,M
25,35,high,TRUE,fish,TRUE,6414,fish,duck,elephant,L
25,36,low,TRUE,swan,TRUE,5974,rooster,swan,leopard,M
25,37,high,TRUE,fish,FALSE,4343,fish,duck,elephant,M
25,38,low,TRUE,raccoon,TRUE,14691,squirrel,peacock,raccoon,R
25,39,high,TRUE,cat,TRUE,5989,cat,dog,bird,L
25,40,low,TRUE,donkey,FALSE,2668,donkey,lobster,rhinoceros,M
26,1,practice,FALSE,apple,FALSE,2074,banana,orange,apple,M
26,2,practice,FALSE,artichoke,TRUE,2100,asparagus,artichoke,onion,M
26,3,practice,FALSE,apple,TRUE,2805,orange,apple,banana,M
26,4,practice,FALSE,artichoke,FALSE,3827,artichoke,onion,asparagus,M
26,5,low,TRUE,swan,TRUE,4337,swan,leopard,rooster,L
26,6,high,TRUE,bird,TRUE,3524,cat,bird,dog,M
26,7,low,TRUE,rhinoceros,FALSE,3550,donkey,lobster,rhinoceros,L
26,8,high,TRUE,dog,TRUE,3276,cat,bird,dog,R
26,9,low,TRUE,leopard,FALSE,5916,leopard,rooster,swan,M
26,10,high,TRUE,elephant,TRUE,2319,fish,duck,elephant,R
26,11,low,TRUE,swan,TRUE,3450,swan,leopard,rooster,L
26,12,high,TRUE,duck,FALSE,2018,elephant,fish,duck,M
26,13,low,TRUE,rhinoceros,TRUE,NA,donkey,rhinoceros,lobster,M
26,14,high,TRUE,horse,TRUE,1864,cow,horse,pig,M
26,15,low,TRUE,peacock,TRUE,4403,peacock,squirrel,raccoon,L
26,16,high,TRUE,cat,TRUE,4918,dog,cat,bird,M
26,17,low,TRUE,lobster,FALSE,4920,rhinoceros,lobster,donkey,R
26,18,high,TRUE,bird,TRUE,3241,dog,bird,cat,M
26,19,low,TRUE,lobster,TRUE,3190,lobster,rhinoceros,donkey,L
26,20,high,TRUE,horse,TRUE,2741,pig,cow,horse,R
26,21,low,TRUE,squirrel,TRUE,3797,squirrel,raccoon,peacock,L
26,22,high,TRUE,cat,TRUE,2305,cat,dog,bird,L
26,23,low,TRUE,donkey,TRUE,4279,donkey,rhinoceros,lobster,L
26,24,high,TRUE,pig,TRUE,6158,pig,cow,horse,L
26,25,low,TRUE,peacock,TRUE,4387,peacock,raccoon,squirrel,L
26,26,high,TRUE,pig,TRUE,3472,pig,cow,horse,L
26,27,low,TRUE,raccoon,FALSE,NA,raccoon,squirrel,peacock,R
26,28,high,TRUE,fish,TRUE,2467,fish,elephant,duck,L
26,29,low,TRUE,donkey,FALSE,2917,rhinoceros,donkey,lobster,R
26,30,high,TRUE,cow,FALSE,3488,pig,horse,cow,M
26,31,low,TRUE,squirrel,FALSE,1926,raccoon,squirrel,peacock,L
26,32,high,TRUE,cow,TRUE,2476,cow,pig,horse,L
26,33,low,TRUE,rooster,FALSE,2376,leopard,rooster,swan,L
26,34,high,TRUE,duck,TRUE,2758,duck,fish,elephant,L
26,35,low,TRUE,raccoon,FALSE,2851,raccoon,peacock,squirrel,M
26,36,high,TRUE,elephant,TRUE,1560,elephant,duck,fish,L
26,37,low,TRUE,rooster,TRUE,2229,rooster,swan,leopard,L
26,38,high,TRUE,dog,TRUE,3252,bird,cat,dog,R
26,39,low,TRUE,leopard,TRUE,NA,leopard,rooster,swan,L
26,40,high,TRUE,fish,TRUE,2039,fish,elephant,duck,L
27,1,practice,FALSE,apple,TRUE,5978,apple,orange,banana,L
27,2,practice,FALSE,artichoke,FALSE,2213,artichoke,onion,asparagus,R
27,3,practice,FALSE,apple,FALSE,4422,orange,banana,apple,M
27,4,practice,FALSE,artichoke,FALSE,3934,artichoke,asparagus,onion,R
27,5,high,TRUE,duck,TRUE,5870,duck,fish,elephant,L
27,6,low,TRUE,peacock,FALSE,3907,raccoon,squirrel,peacock,L
27,7,high,TRUE,bird,FALSE,4754,cat,bird,dog,R
27,8,low,TRUE,rhinoceros,TRUE,5436,lobster,donkey,rhinoceros,R
27,9,high,TRUE,bird,TRUE,4009,bird,cat,dog,L
27,10,low,TRUE,rooster,TRUE,3835,rooster,leopard,swan,L
27,11,high,TRUE,fish,TRUE,5721,fish,elephant,duck,L
27,12,low,TRUE,lobster,TRUE,16148,lobster,donkey,rhinoceros,L
27,13,high,TRUE,elephant,TRUE,13928,duck,elephant,fish,M
27,14,low,TRUE,peacock,FALSE,3180,squirrel,peacock,raccoon,L
27,15,high,TRUE,dog,TRUE,5480,cat,bird,dog,R
27,16,low,TRUE,swan,TRUE,2894,swan,rooster,leopard,L
27,17,high,TRUE,cow,TRUE,2900,pig,cow,horse,M
27,18,low,TRUE,lobster,FALSE,3806,lobster,donkey,rhinoceros,M
27,19,high,TRUE,cat,TRUE,2488,dog,bird,cat,R
27,20,low,TRUE,swan,FALSE,1943,rooster,swan,leopard,R
27,21,high,TRUE,cow,FALSE,3282,horse,cow,pig,L
27,22,low,TRUE,rooster,TRUE,22986,rooster,swan,leopard,L
27,23,high,TRUE,horse,TRUE,1844,horse,cow,pig,L
27,24,low,TRUE,squirrel,FALSE,3659,peacock,squirrel,raccoon,L
27,25,high,TRUE,cat,TRUE,5170,cat,dog,bird,L
27,26,low,TRUE,leopard,TRUE,2564,swan,leopard,rooster,M
27,27,high,TRUE,horse,FALSE,4806,pig,horse,cow,L
27,28,low,TRUE,leopard,FALSE,2540,rooster,leopard,swan,L
27,29,high,TRUE,fish,TRUE,13861,fish,elephant,duck,L
27,30,low,TRUE,raccoon,TRUE,2479,raccoon,peacock,squirrel,L
27,31,high,TRUE,dog,FALSE,5660,dog,cat,bird,R
27,32,low,TRUE,rhinoceros,TRUE,3560,lobster,rhinoceros,donkey,M
27,33,high,TRUE,pig,TRUE,7658,horse,cow,pig,R
27,34,low,TRUE,squirrel,FALSE,9386,peacock,squirrel,raccoon,R
27,35,high,TRUE,duck,TRUE,1517,elephant,duck,fish,M
27,36,low,TRUE,raccoon,FALSE,1767,raccoon,squirrel,peacock,M
27,37,high,TRUE,pig,FALSE,3793,pig,cow,horse,M
27,38,low,TRUE,donkey,TRUE,2813,donkey,rhinoceros,lobster,L
27,39,high,TRUE,elephant,FALSE,6464,duck,elephant,fish,L
27,40,low,TRUE,donkey,TRUE,24900,rhinoceros,lobster,donkey,R
28,1,practice,FALSE,apple,TRUE,5670,apple,banana,orange,L
28,2,practice,FALSE,artichoke,FALSE,8651,asparagus,artichoke,onion,R
28,3,practice,FALSE,apple,FALSE,4923,orange,apple,banana,L
28,4,practice,FALSE,artichoke,FALSE,3937,asparagus,onion,artichoke,L
28,5,low,TRUE,rhinoceros,TRUE,3213,donkey,lobster,rhinoceros,R
28,6,high,TRUE,cow,FALSE,3235,cow,pig,horse,M
28,7,low,TRUE,peacock,TRUE,4657,squirrel,peacock,raccoon,M
28,8,high,TRUE,horse,FALSE,2194,cow,horse,pig,R
28,9,low,TRUE,raccoon,FALSE,1816,raccoon,peacock,squirrel,M
28,10,high,TRUE,fish,TRUE,2484,fish,duck,elephant,L
28,11,low,TRUE,swan,FALSE,3570,swan,rooster,leopard,R
28,12,high,TRUE,duck,FALSE,4835,duck,elephant,fish,R
28,13,low,TRUE,leopard,TRUE,7834,swan,leopard,rooster,M
28,14,high,TRUE,cow,TRUE,1659,cow,pig,horse,L
28,15,low,TRUE,rooster,FALSE,5392,leopard,swan,rooster,L
28,16,high,TRUE,bird,TRUE,3544,dog,bird,cat,M
28,17,low,TRUE,leopard,FALSE,6000,swan,leopard,rooster,L
28,18,high,TRUE,dog,FALSE,1635,cat,dog,bird,L
28,19,low,TRUE,rooster,TRUE,3014,leopard,swan,rooster,R
28,20,high,TRUE,fish,TRUE,2627,elephant,duck,fish,R
28,21,low,TRUE,donkey,FALSE,2886,rhinoceros,lobster,donkey,M
28,22,high,TRUE,pig,TRUE,2825,cow,pig,horse,M
28,23,low,TRUE,squirrel,TRUE,4586,peacock,raccoon,squirrel,R
28,24,high,TRUE,pig,TRUE,2585,horse,cow,pig,R
28,25,low,TRUE,peacock,TRUE,29134,squirrel,raccoon,peacock,R
28,26,high,TRUE,elephant,FALSE,27925,duck,elephant,fish,R
28,27,low,TRUE,rhinoceros,FALSE,7024,donkey,rhinoceros,lobster,R
28,28,high,TRUE,cat,FALSE,34738,bird,dog,cat,M
28,29,low,TRUE,swan,TRUE,5227,rooster,swan,leopard,M
28,30,high,TRUE,horse,FALSE,11460,horse,pig,cow,M
28,31,low,TRUE,donkey,FALSE,63321,donkey,rhinoceros,lobster,R
28,32,high,TRUE,duck,FALSE,2244,elephant,fish,duck,M
28,33,low,TRUE,lobster,FALSE,6426,donkey,lobster,rhinoceros,R
28,34,high,TRUE,bird,TRUE,3289,bird,dog,cat,L
28,35,low,TRUE,squirrel,FALSE,3909,raccoon,peacock,squirrel,L
28,36,high,TRUE,dog,FALSE,3437,bird,dog,cat,L
28,37,low,TRUE,lobster,FALSE,5758,donkey,lobster,rhinoceros,R
28,38,high,TRUE,elephant,TRUE,2775,elephant,duck,fish,L
28,39,low,TRUE,raccoon,TRUE,4771,peacock,squirrel,raccoon,R
28,40,high,TRUE,cat,FALSE,11382,cat,dog,bird,M
29,1,practice,FALSE,apple,FALSE,1823,banana,orange,apple,M
29,2,practice,FALSE,artichoke,FALSE,1736,asparagus,onion,artichoke,M
29,3,practice,FALSE,apple,TRUE,1525,banana,apple,orange,M
29,4,practice,FALSE,artichoke,TRUE,1619,asparagus,onion,artichoke,R
29,5,low,TRUE,rooster,FALSE,1575,rooster,swan,leopard,M
29,6,high,TRUE,cow,TRUE,1551,pig,cow,horse,M
29,7,low,TRUE,raccoon,FALSE,2692,squirrel,raccoon,peacock,R
29,8,high,TRUE,duck,FALSE,3171,duck,fish,elephant,R
29,9,low,TRUE,lobster,FALSE,3059,lobster,donkey,rhinoceros,M
29,10,high,TRUE,dog,FALSE,3355,cat,dog,bird,R
29,11,low,TRUE,swan,TRUE,4166,rooster,swan,leopard,M
29,12,high,TRUE,duck,TRUE,2296,fish,duck,elephant,M
29,13,low,TRUE,rhinoceros,TRUE,2698,lobster,rhinoceros,donkey,M
29,14,high,TRUE,cat,TRUE,2490,bird,cat,dog,M
29,15,low,TRUE,donkey,TRUE,4134,rhinoceros,donkey,lobster,M
29,16,high,TRUE,horse,TRUE,3129,horse,pig,cow,L
29,17,low,TRUE,raccoon,TRUE,2203,raccoon,squirrel,peacock,L
29,18,high,TRUE,fish,FALSE,2143,fish,duck,elephant,M
29,19,low,TRUE,rhinoceros,TRUE,2657,lobster,donkey,rhinoceros,R
29,20,high,TRUE,horse,TRUE,1899,pig,cow,horse,R
29,21,low,TRUE,rooster,TRUE,4719,leopard,swan,rooster,R
29,22,high,TRUE,fish,TRUE,3942,fish,elephant,duck,L
29,23,low,TRUE,peacock,FALSE,4729,squirrel,raccoon,peacock,L
29,24,high,TRUE,cow,TRUE,4149,pig,horse,cow,R
29,25,low,TRUE,swan,FALSE,2950,rooster,swan,leopard,R
29,26,high,TRUE,bird,TRUE,2653,cat,dog,bird,R
29,27,low,TRUE,squirrel,TRUE,3326,squirrel,peacock,raccoon,L
29,28,high,TRUE,elephant,TRUE,2647,elephant,duck,fish,L
29,29,low,TRUE,leopard,TRUE,6586,swan,leopard,rooster,M
29,30,high,TRUE,pig,FALSE,3124,pig,cow,horse,M
29,31,low,TRUE,leopard,TRUE,2853,leopard,swan,rooster,L
29,32,high,TRUE,bird,TRUE,4111,dog,cat,bird,R
29,33,low,TRUE,lobster,FALSE,2636,donkey,lobster,rhinoceros,R
29,34,high,TRUE,elephant,TRUE,3846,elephant,duck,fish,L
29,35,low,TRUE,peacock,FALSE,7184,raccoon,squirrel,peacock,L
29,36,high,TRUE,dog,TRUE,2316,cat,bird,dog,R
29,37,low,TRUE,squirrel,TRUE,2076,squirrel,raccoon,peacock,L
29,38,high,TRUE,cat,TRUE,1997,bird,dog,cat,R
29,39,low,TRUE,donkey,TRUE,6685,donkey,rhinoceros,lobster,L
29,40,high,TRUE,pig,TRUE,32297,cow,horse,pig,R
30,1,practice,FALSE,apple,TRUE,4502,apple,banana,orange,L
30,2,practice,FALSE,artichoke,TRUE,3315,artichoke,asparagus,onion,L
30,3,practice,FALSE,apple,TRUE,2184,apple,orange,banana,L
30,4,practice,FALSE,artichoke,TRUE,1554,artichoke,asparagus,onion,L
30,5,high,TRUE,dog,FALSE,1818,bird,cat,dog,L
30,6,low,TRUE,leopard,TRUE,3361,swan,leopard,rooster,M
30,7,high,TRUE,dog,TRUE,2453,cat,bird,dog,R
30,8,low,TRUE,rhinoceros,TRUE,2539,donkey,lobster,rhinoceros,R
30,9,high,TRUE,horse,TRUE,1983,cow,pig,horse,R
30,10,low,TRUE,donkey,TRUE,2350,lobster,donkey,rhinoceros,M
30,11,high,TRUE,pig,TRUE,1919,cow,pig,horse,M
30,12,low,TRUE,lobster,TRUE,4200,donkey,lobster,rhinoceros,M
30,13,high,TRUE,fish,TRUE,2328,fish,elephant,duck,L
30,14,low,TRUE,squirrel,TRUE,3970,squirrel,peacock,raccoon,L
30,15,high,TRUE,pig,TRUE,NA,cow,pig,horse,M
30,16,low,TRUE,donkey,TRUE,2738,rhinoceros,lobster,donkey,R
30,17,high,TRUE,cow,TRUE,2442,pig,horse,cow,R
30,18,low,TRUE,squirrel,TRUE,2503,peacock,squirrel,raccoon,M
30,19,high,TRUE,bird,FALSE,NA,cat,bird,dog,L
30,20,low,TRUE,swan,TRUE,3626,swan,rooster,leopard,L
30,21,high,TRUE,cat,TRUE,2300,cat,dog,bird,L
30,22,low,TRUE,raccoon,FALSE,3429,raccoon,peacock,squirrel,M
30,23,high,TRUE,duck,TRUE,3781,elephant,duck,fish,M
30,24,low,TRUE,lobster,TRUE,2109,rhinoceros,lobster,donkey,M
30,25,high,TRUE,duck,TRUE,2953,fish,elephant,duck,R
30,26,low,TRUE,leopard,TRUE,2661,leopard,rooster,swan,L
30,27,high,TRUE,elephant,TRUE,4032,elephant,fish,duck,L
30,28,low,TRUE,rooster,TRUE,2823,swan,leopard,rooster,R
30,29,high,TRUE,cow,TRUE,3962,pig,horse,cow,R
30,30,low,TRUE,raccoon,FALSE,4845,peacock,squirrel,raccoon,M
30,31,high,TRUE,elephant,TRUE,9104,fish,duck,elephant,R
30,32,low,TRUE,peacock,TRUE,12619,squirrel,raccoon,peacock,R
30,33,high,TRUE,horse,FALSE,11326,pig,horse,cow,L
30,34,low,TRUE,peacock,TRUE,4498,raccoon,squirrel,peacock,R
30,35,high,TRUE,bird,TRUE,13416,dog,cat,bird,R
30,36,low,TRUE,swan,TRUE,71976,swan,rooster,leopard,L
30,37,high,TRUE,cat,TRUE,2454,dog,cat,bird,M
30,38,low,TRUE,rooster,TRUE,2259,swan,rooster,leopard,M
30,39,high,TRUE,fish,FALSE,2608,fish,duck,elephant,M
30,40,low,TRUE,rhinoceros,TRUE,3130,lobster,donkey,rhinoceros,R
31,1,practice,FALSE,apple,TRUE,5457,apple,orange,banana,L
31,2,practice,FALSE,artichoke,FALSE,3225,artichoke,onion,asparagus,M
31,3,practice,FALSE,apple,FALSE,4667,banana,apple,orange,R
31,4,practice,FALSE,artichoke,TRUE,7671,artichoke,asparagus,onion,L
31,5,low,TRUE,rhinoceros,TRUE,7490,lobster,rhinoceros,donkey,M
31,6,high,TRUE,cat,FALSE,1906,cat,bird,dog,R
31,7,low,TRUE,leopard,TRUE,7230,rooster,leopard,swan,M
31,8,high,TRUE,dog,TRUE,3316,cat,bird,dog,R
31,9,low,TRUE,peacock,TRUE,2699,raccoon,squirrel,peacock,R
31,10,high,TRUE,cat,TRUE,2272,dog,cat,bird,M
31,11,low,TRUE,lobster,TRUE,5590,lobster,rhinoceros,donkey,L
31,12,high,TRUE,elephant,TRUE,2601,elephant,fish,duck,L
31,13,low,TRUE,rooster,TRUE,2388,leopard,swan,rooster,R
31,14,high,TRUE,cow,TRUE,9939,pig,horse,cow,R
31,15,low,TRUE,rooster,TRUE,2315,leopard,rooster,swan,M
31,16,high,TRUE,duck,TRUE,2806,fish,duck,elephant,M
31,17,low,TRUE,donkey,TRUE,6525,lobster,rhinoceros,donkey,R
31,18,high,TRUE,horse,TRUE,4966,cow,horse,pig,M
31,19,low,TRUE,squirrel,TRUE,4033,peacock,raccoon,squirrel,R
31,20,high,TRUE,bird,TRUE,2902,cat,dog,bird,R
31,21,low,TRUE,lobster,TRUE,4549,lobster,donkey,rhinoceros,L
31,22,high,TRUE,elephant,TRUE,4816,elephant,duck,fish,L
31,23,low,TRUE,rhinoceros,TRUE,3866,lobster,rhinoceros,donkey,M
31,24,high,TRUE,duck,TRUE,5389,elephant,fish,duck,R
31,25,low,TRUE,swan,TRUE,4307,leopard,rooster,swan,R
31,26,high,TRUE,dog,TRUE,2986,dog,cat,bird,L
31,27,low,TRUE,donkey,TRUE,2571,lobster,rhinoceros,donkey,R
31,28,high,TRUE,fish,TRUE,2235,elephant,fish,duck,M
31,29,low,TRUE,swan,TRUE,2645,leopard,rooster,swan,R
31,30,high,TRUE,pig,TRUE,3332,pig,cow,horse,L
31,31,low,TRUE,peacock,TRUE,3114,squirrel,peacock,raccoon,M
31,32,high,TRUE,bird,TRUE,2618,dog,bird,cat,M
31,33,low,TRUE,raccoon,TRUE,6002,squirrel,peacock,raccoon,R
31,34,high,TRUE,cow,TRUE,3639,cow,pig,horse,L
31,35,low,TRUE,raccoon,TRUE,9299,raccoon,peacock,squirrel,L
31,36,high,TRUE,pig,TRUE,2300,pig,cow,horse,L
31,37,low,TRUE,squirrel,TRUE,2769,raccoon,peacock,squirrel,R
31,38,high,TRUE,horse,TRUE,2058,cow,pig,horse,R
31,39,low,TRUE,leopard,FALSE,2904,swan,rooster,leopard,L
31,40,high,TRUE,fish,TRUE,3131,duck,fish,elephant,M
32,1,practice,FALSE,apple,TRUE,4582,orange,apple,banana,M
32,2,practice,FALSE,artichoke,FALSE,3163,onion,asparagus,artichoke,L
32,3,practice,FALSE,apple,TRUE,2453,apple,banana,orange,L
32,4,practice,FALSE,artichoke,FALSE,2660,artichoke,onion,asparagus,M
32,5,low,TRUE,squirrel,FALSE,1740,raccoon,peacock,squirrel,M
32,6,high,TRUE,duck,TRUE,2867,duck,elephant,fish,L
32,7,low,TRUE,swan,TRUE,4076,swan,rooster,leopard,L
32,8,high,TRUE,cat,TRUE,2170,bird,dog,cat,R
32,9,low,TRUE,donkey,TRUE,1755,lobster,donkey,rhinoceros,M
32,10,high,TRUE,horse,TRUE,3592,cow,pig,horse,R
32,11,low,TRUE,rooster,FALSE,1529,swan,leopard,rooster,M
32,12,high,TRUE,elephant,TRUE,3121,elephant,fish,duck,L
32,13,low,TRUE,leopard,TRUE,2177,swan,rooster,leopard,R
32,14,high,TRUE,fish,TRUE,2823,elephant,duck,fish,R
32,15,low,TRUE,swan,FALSE,2288,swan,leopard,rooster,M
32,16,high,TRUE,horse,FALSE,2968,pig,horse,cow,R
32,17,low,TRUE,leopard,TRUE,3635,swan,rooster,leopard,R
32,18,high,TRUE,cow,FALSE,7851,horse,pig,cow,M
32,19,low,TRUE,peacock,FALSE,2779,squirrel,peacock,raccoon,R
32,20,high,TRUE,bird,TRUE,2586,bird,dog,cat,L
32,21,low,TRUE,rhinoceros,FALSE,3392,rhinoceros,lobster,donkey,R
32,22,high,TRUE,duck,FALSE,2582,duck,fish,elephant,R
32,23,low,TRUE,rhinoceros,FALSE,2615,rhinoceros,lobster,donkey,M
32,24,high,TRUE,cat,FALSE,1872,dog,cat,bird,L
32,25,low,TRUE,raccoon,TRUE,5010,peacock,squirrel,raccoon,R
32,26,high,TRUE,cow,FALSE,1561,cow,pig,horse,M
32,27,low,TRUE,peacock,FALSE,1756,peacock,raccoon,squirrel,R
32,28,high,TRUE,dog,FALSE,3777,dog,cat,bird,M
32,29,low,TRUE,lobster,TRUE,5278,donkey,lobster,rhinoceros,M
32,30,high,TRUE,elephant,FALSE,1511,elephant,duck,fish,R
32,31,low,TRUE,squirrel,TRUE,5370,peacock,squirrel,raccoon,M
32,32,high,TRUE,pig,FALSE,6501,horse,pig,cow,R
32,33,low,TRUE,donkey,TRUE,6502,rhinoceros,donkey,lobster,M
32,34,high,TRUE,bird,TRUE,12549,dog,bird,cat,M
32,35,low,TRUE,rooster,TRUE,3799,rooster,leopard,swan,L
32,36,high,TRUE,dog,FALSE,3728,cat,bird,dog,L
32,37,low,TRUE,lobster,TRUE,2500,lobster,rhinoceros,donkey,L
32,38,high,TRUE,fish,TRUE,1891,fish,elephant,duck,L
32,39,low,TRUE,raccoon,FALSE,20680,peacock,squirrel,raccoon,L
32,40,high,TRUE,pig,TRUE,1780,cow,pig,horse,M
33,1,practice,FALSE,apple,TRUE,5422,banana,apple,orange,M
33,2,practice,FALSE,artichoke,FALSE,2330,onion,artichoke,asparagus,L
33,3,practice,FALSE,apple,FALSE,1589,banana,orange,apple,L
33,4,practice,FALSE,artichoke,TRUE,5034,artichoke,onion,asparagus,L
33,5,low,TRUE,swan,TRUE,16400,leopard,swan,rooster,M
33,6,high,TRUE,pig,TRUE,2592,horse,pig,cow,M
33,7,low,TRUE,squirrel,FALSE,4290,raccoon,squirrel,peacock,L
33,8,high,TRUE,horse,TRUE,2558,horse,cow,pig,L
33,9,low,TRUE,leopard,TRUE,5700,leopard,rooster,swan,L
33,10,high,TRUE,elephant,TRUE,2399,elephant,fish,duck,L
33,11,low,TRUE,leopard,TRUE,3897,leopard,rooster,swan,L
33,12,high,TRUE,horse,TRUE,NA,horse,pig,cow,L
33,13,low,TRUE,peacock,FALSE,1889,squirrel,peacock,raccoon,L
33,14,high,TRUE,cat,TRUE,6390,bird,cat,dog,M
33,15,low,TRUE,peacock,TRUE,5950,peacock,squirrel,raccoon,L
33,16,high,TRUE,bird,TRUE,3120,dog,cat,bird,R
33,17,low,TRUE,rhinoceros,TRUE,14366,rhinoceros,donkey,lobster,L
33,18,high,TRUE,duck,TRUE,6926,duck,elephant,fish,L
33,19,low,TRUE,raccoon,TRUE,8544,squirrel,peacock,raccoon,R
33,20,high,TRUE,duck,TRUE,3734,elephant,fish,duck,R
33,21,low,TRUE,squirrel,TRUE,2552,squirrel,peacock,raccoon,L
33,22,high,TRUE,dog,TRUE,2693,dog,cat,bird,L
33,23,low,TRUE,lobster,TRUE,4184,donkey,lobster,rhinoceros,M
33,24,high,TRUE,pig,TRUE,2768,horse,cow,pig,R
33,25,low,TRUE,donkey,TRUE,4078,lobster,donkey,rhinoceros,M
33,26,high,TRUE,fish,TRUE,NA,duck,elephant,fish,R
33,27,low,TRUE,rooster,TRUE,3908,leopard,swan,rooster,R
33,28,high,TRUE,elephant,TRUE,5375,fish,duck,elephant,R
33,29,low,TRUE,raccoon,FALSE,11206,peacock,squirrel,raccoon,L
33,30,high,TRUE,fish,TRUE,2697,duck,fish,elephant,M
33,31,low,TRUE,rhinoceros,FALSE,2300,donkey,rhinoceros,lobster,R
33,32,high,TRUE,cow,TRUE,7854,pig,horse,cow,R
33,33,low,TRUE,lobster,TRUE,13239,donkey,rhinoceros,lobster,R
33,34,high,TRUE,cat,TRUE,3607,cat,dog,bird,L
33,35,low,TRUE,rooster,TRUE,9750,leopard,rooster,swan,M
33,36,high,TRUE,cow,TRUE,32528,pig,cow,horse,M
33,37,low,TRUE,donkey,TRUE,10721,rhinoceros,lobster,donkey,R
33,38,high,TRUE,bird,TRUE,2809,cat,dog,bird,R
33,39,low,TRUE,swan,TRUE,2546,rooster,leopard,swan,R
33,40,high,TRUE,dog,TRUE,2211,cat,bird,dog,R
34,1,practice,FALSE,apple,FALSE,4622,orange,banana,apple,M
34,2,practice,FALSE,artichoke,FALSE,6681,asparagus,artichoke,onion,R
34,3,practice,FALSE,apple,FALSE,5235,orange,apple,banana,L
34,4,practice,FALSE,artichoke,TRUE,2894,artichoke,onion,asparagus,L
34,5,high,TRUE,fish,FALSE,13625,fish,duck,elephant,R
34,6,low,TRUE,swan,FALSE,2498,swan,leopard,rooster,M
34,7,high,TRUE,dog,FALSE,8525,cat,dog,bird,L
34,8,low,TRUE,leopard,FALSE,5044,rooster,swan,leopard,L
34,9,high,TRUE,cow,FALSE,2261,cow,horse,pig,M
34,10,low,TRUE,raccoon,FALSE,2631,peacock,squirrel,raccoon,M
34,11,high,TRUE,horse,TRUE,2332,cow,horse,pig,M
34,12,low,TRUE,squirrel,TRUE,3132,squirrel,raccoon,peacock,L
34,13,high,TRUE,pig,FALSE,6159,cow,pig,horse,L
34,14,low,TRUE,lobster,TRUE,2467,rhinoceros,lobster,donkey,M
34,15,high,TRUE,pig,TRUE,3055,pig,cow,horse,L
34,16,low,TRUE,peacock,TRUE,5477,peacock,squirrel,raccoon,L
34,17,high,TRUE,bird,TRUE,4058,cat,bird,dog,M
34,18,low,TRUE,donkey,FALSE,9733,lobster,rhinoceros,donkey,L
34,19,high,TRUE,elephant,TRUE,7815,elephant,duck,fish,L
34,20,low,TRUE,leopard,TRUE,1625,rooster,leopard,swan,M
34,21,high,TRUE,horse,TRUE,1951,pig,horse,cow,M
34,22,low,TRUE,rhinoceros,FALSE,3917,lobster,donkey,rhinoceros,L
34,23,high,TRUE,duck,FALSE,4747,elephant,fish,duck,M
34,24,low,TRUE,swan,TRUE,2020,swan,leopard,rooster,L
34,25,high,TRUE,duck,FALSE,7703,duck,elephant,fish,M
34,26,low,TRUE,rhinoceros,FALSE,2996,donkey,rhinoceros,lobster,L
34,27,high,TRUE,bird,TRUE,7172,cat,dog,bird,R
34,28,low,TRUE,rooster,TRUE,10975,leopard,swan,rooster,R
34,29,high,TRUE,elephant,TRUE,5856,elephant,duck,fish,L
34,30,low,TRUE,squirrel,TRUE,2831,squirrel,raccoon,peacock,L
34,31,high,TRUE,fish,TRUE,1790,fish,duck,elephant,L
34,32,low,TRUE,donkey,FALSE,5265,donkey,lobster,rhinoceros,M
34,33,high,TRUE,cat,FALSE,3130,bird,dog,cat,L
34,34,low,TRUE,raccoon,FALSE,1511,peacock,raccoon,squirrel,R
34,35,high,TRUE,cat,FALSE,7486,cat,bird,dog,R
34,36,low,TRUE,rooster,TRUE,3433,rooster,leopard,swan,L
34,37,high,TRUE,cow,FALSE,12096,pig,cow,horse,L
34,38,low,TRUE,peacock,TRUE,2230,squirrel,raccoon,peacock,R
34,39,high,TRUE,dog,TRUE,5115,bird,cat,dog,R
34,40,low,TRUE,lobster,TRUE,2129,donkey,lobster,rhinoceros,M
35,1,practice,FALSE,apple,FALSE,5751,apple,orange,banana,M
35,2,practice,FALSE,artichoke,FALSE,2711,asparagus,onion,artichoke,L
35,3,practice,FALSE,apple,TRUE,2628,orange,apple,banana,M
35,4,practice,FALSE,artichoke,TRUE,2025,artichoke,onion,asparagus,L
35,5,high,TRUE,pig,TRUE,1744,horse,pig,cow,M
35,6,low,TRUE,donkey,TRUE,3836,donkey,rhinoceros,lobster,L
35,7,high,TRUE,dog,FALSE,1510,cat,bird,dog,L
35,8,low,TRUE,rooster,FALSE,1761,swan,leopard,rooster,M
35,9,high,TRUE,cat,TRUE,3089,cat,bird,dog,L
35,10,low,TRUE,swan,FALSE,3256,swan,leopard,rooster,M
35,11,high,TRUE,horse,FALSE,3890,cow,horse,pig,L
35,12,low,TRUE,swan,FALSE,2572,swan,leopard,rooster,M
35,13,high,TRUE,cat,TRUE,1675,cat,dog,bird,L
35,14,low,TRUE,donkey,TRUE,3466,rhinoceros,donkey,lobster,M
35,15,high,TRUE,elephant,TRUE,2866,duck,elephant,fish,M
35,16,low,TRUE,rhinoceros,FALSE,3621,lobster,rhinoceros,donkey,R
35,17,high,TRUE,bird,TRUE,1941,cat,bird,dog,M
35,18,low,TRUE,rhinoceros,TRUE,2150,donkey,lobster,rhinoceros,R
35,19,high,TRUE,dog,TRUE,2208,bird,cat,dog,R
35,20,low,TRUE,leopard,TRUE,2903,rooster,leopard,swan,M
35,21,high,TRUE,fish,TRUE,2506,duck,elephant,fish,R
35,22,low,TRUE,squirrel,TRUE,3282,squirrel,raccoon,peacock,L
35,23,high,TRUE,fish,TRUE,3839,fish,elephant,duck,L
35,24,low,TRUE,leopard,TRUE,2277,swan,leopard,rooster,M
35,25,high,TRUE,duck,TRUE,2180,duck,fish,elephant,L
35,26,low,TRUE,peacock,TRUE,2776,squirrel,raccoon,peacock,R
35,27,high,TRUE,duck,FALSE,2011,elephant,fish,duck,M
35,28,low,TRUE,peacock,TRUE,1648,peacock,squirrel,raccoon,L
35,29,high,TRUE,cow,FALSE,1773,horse,pig,cow,M
35,30,low,TRUE,squirrel,FALSE,2133,raccoon,squirrel,peacock,L
35,31,high,TRUE,cow,TRUE,1851,cow,horse,pig,L
35,32,low,TRUE,raccoon,TRUE,12049,peacock,raccoon,squirrel,M
35,33,high,TRUE,bird,TRUE,2853,bird,dog,cat,L
35,34,low,TRUE,raccoon,FALSE,16031,peacock,squirrel,raccoon,L
35,35,high,TRUE,elephant,TRUE,42197,fish,duck,elephant,R
35,36,low,TRUE,lobster,TRUE,3982,lobster,rhinoceros,donkey,L
35,37,high,TRUE,pig,TRUE,1872,cow,horse,pig,R
35,38,low,TRUE,rooster,TRUE,2405,swan,leopard,rooster,R
35,39,high,TRUE,horse,FALSE,20263,pig,cow,horse,M
35,40,low,TRUE,lobster,FALSE,8875,donkey,lobster,rhinoceros,L
36,1,practice,FALSE,apple,FALSE,5207,apple,banana,orange,R
36,2,practice,FALSE,artichoke,TRUE,2716,onion,artichoke,asparagus,M
36,3,practice,FALSE,apple,TRUE,1512,orange,apple,banana,M
36,4,practice,FALSE,artichoke,TRUE,4466,artichoke,onion,asparagus,L
36,5,high,TRUE,elephant,TRUE,5124,elephant,fish,duck,L
36,6,low,TRUE,rhinoceros,FALSE,2724,rhinoceros,lobster,donkey,M
36,7,high,TRUE,fish,TRUE,2889,duck,elephant,fish,R
36,8,low,TRUE,rooster,TRUE,3049,rooster,swan,leopard,L
36,9,high,TRUE,cat,TRUE,2261,cat,bird,dog,L
36,10,low,TRUE,peacock,TRUE,3617,peacock,squirrel,raccoon,L
36,11,high,TRUE,cow,TRUE,4307,horse,pig,cow,R
36,12,low,TRUE,raccoon,TRUE,4855,squirrel,raccoon,peacock,M
36,13,high,TRUE,fish,TRUE,3187,duck,fish,elephant,M
36,14,low,TRUE,rhinoceros,TRUE,2203,donkey,rhinoceros,lobster,M
36,15,high,TRUE,duck,TRUE,NA,duck,fish,elephant,L
36,16,low,TRUE,leopard,TRUE,7027,swan,rooster,leopard,R
36,17,high,TRUE,bird,FALSE,1640,cat,dog,bird,M
36,18,low,TRUE,leopard,FALSE,3849,leopard,rooster,swan,M
36,19,high,TRUE,duck,TRUE,3684,elephant,fish,duck,R
36,20,low,TRUE,peacock,TRUE,3084,raccoon,peacock,squirrel,M
36,21,high,TRUE,cat,TRUE,7515,cat,bird,dog,L
36,22,low,TRUE,donkey,FALSE,8368,rhinoceros,donkey,lobster,R
36,23,high,TRUE,pig,FALSE,2874,cow,pig,horse,R
36,24,low,TRUE,swan,TRUE,3137,rooster,leopard,swan,R
36,25,high,TRUE,elephant,TRUE,1557,duck,elephant,fish,M
36,26,low,TRUE,lobster,FALSE,1726,donkey,lobster,rhinoceros,R
36,27,high,TRUE,dog,TRUE,2672,bird,dog,cat,M
36,28,low,TRUE,raccoon,FALSE,1593,squirrel,raccoon,peacock,R
36,29,high,TRUE,horse,FALSE,2482,pig,horse,cow,R
36,30,low,TRUE,squirrel,TRUE,4252,squirrel,raccoon,peacock,L
36,31,high,TRUE,pig,TRUE,3694,cow,horse,pig,R
36,32,low,TRUE,squirrel,TRUE,9280,peacock,raccoon,squirrel,R
36,33,high,TRUE,dog,FALSE,2018,bird,dog,cat,R
36,34,low,TRUE,swan,TRUE,13412,rooster,leopard,swan,R
36,35,high,TRUE,bird,TRUE,2749,cat,dog,bird,R
36,36,low,TRUE,lobster,FALSE,1582,lobster,donkey,rhinoceros,M
36,37,high,TRUE,cow,FALSE,3830,cow,horse,pig,M
36,38,low,TRUE,rooster,TRUE,4155,rooster,leopard,swan,L
36,39,high,TRUE,horse,TRUE,43592,horse,cow,pig,L
36,40,low,TRUE,donkey,FALSE,1763,rhinoceros,lobster,donkey,M
37,1,practice,FALSE,apple,TRUE,5799,apple,banana,orange,L
37,2,practice,FALSE,artichoke,TRUE,3085,artichoke,onion,asparagus,L
37,3,practice,FALSE,apple,TRUE,3472,banana,apple,orange,M
37,4,practice,FALSE,artichoke,FALSE,4258,onion,asparagus,artichoke,L
37,5,low,TRUE,lobster,TRUE,5214,rhinoceros,lobster,donkey,M
37,6,high,TRUE,duck,TRUE,3550,fish,elephant,duck,R
37,7,low,TRUE,peacock,TRUE,3955,raccoon,peacock,squirrel,M
37,8,high,TRUE,bird,TRUE,3056,cat,dog,bird,R
37,9,low,TRUE,peacock,FALSE,3950,peacock,raccoon,squirrel,M
37,10,high,TRUE,cow,TRUE,5177,pig,cow,horse,M
37,11,low,TRUE,leopard,FALSE,4518,swan,leopard,rooster,L
37,12,high,TRUE,dog,TRUE,2920,cat,bird,dog,R
37,13,low,TRUE,lobster,TRUE,2795,lobster,donkey,rhinoceros,L
37,14,high,TRUE,dog,TRUE,4591,bird,cat,dog,R
37,15,low,TRUE,leopard,FALSE,4388,swan,rooster,leopard,L
37,16,high,TRUE,fish,TRUE,2654,fish,duck,elephant,L
37,17,low,TRUE,donkey,TRUE,4454,rhinoceros,lobster,donkey,R
37,18,high,TRUE,pig,TRUE,2588,cow,horse,pig,R
37,19,low,TRUE,raccoon,TRUE,4352,squirrel,peacock,raccoon,R
37,20,high,TRUE,bird,TRUE,3021,dog,cat,bird,R
37,21,low,TRUE,squirrel,TRUE,2438,squirrel,raccoon,peacock,L
37,22,high,TRUE,elephant,TRUE,3067,elephant,duck,fish,L
37,23,low,TRUE,swan,FALSE,4142,rooster,leopard,swan,L
37,24,high,TRUE,pig,TRUE,4193,horse,pig,cow,M
37,25,low,TRUE,rhinoceros,TRUE,5469,lobster,donkey,rhinoceros,R
37,26,high,TRUE,horse,TRUE,2851,cow,horse,pig,M
37,27,low,TRUE,squirrel,TRUE,2526,raccoon,squirrel,peacock,M
37,28,high,TRUE,elephant,TRUE,3945,elephant,fish,duck,L
37,29,low,TRUE,rooster,TRUE,3333,leopard,swan,rooster,R
37,30,high,TRUE,cat,TRUE,2538,bird,dog,cat,R
37,31,low,TRUE,swan,FALSE,5387,leopard,swan,rooster,L
37,32,high,TRUE,cat,TRUE,3944,cat,bird,dog,L
37,33,low,TRUE,rooster,TRUE,3526,swan,leopard,rooster,R
37,34,high,TRUE,fish,TRUE,3100,duck,elephant,fish,R
37,35,low,TRUE,raccoon,TRUE,3257,peacock,squirrel,raccoon,R
37,36,high,TRUE,cow,TRUE,3131,pig,horse,cow,R
37,37,low,TRUE,donkey,FALSE,3402,rhinoceros,donkey,lobster,L
37,38,high,TRUE,horse,TRUE,3244,cow,pig,horse,R
37,39,low,TRUE,rhinoceros,TRUE,3522,donkey,lobster,rhinoceros,R
37,40,high,TRUE,duck,TRUE,2422,elephant,duck,fish,M
38,1,practice,FALSE,apple,FALSE,3917,orange,apple,banana,R
38,2,practice,FALSE,artichoke,FALSE,1767,onion,asparagus,artichoke,L
38,3,practice,FALSE,apple,TRUE,2708,apple,banana,orange,L
38,4,practice,FALSE,artichoke,TRUE,4569,asparagus,onion,artichoke,R
38,5,low,TRUE,rooster,FALSE,3056,leopard,rooster,swan,R
38,6,high,TRUE,horse,TRUE,3186,horse,cow,pig,L
38,7,low,TRUE,raccoon,FALSE,3656,peacock,squirrel,raccoon,M
38,8,high,TRUE,fish,TRUE,2517,duck,elephant,fish,R
38,9,low,TRUE,donkey,TRUE,3992,lobster,rhinoceros,donkey,R
38,10,high,TRUE,bird,TRUE,3594,bird,dog,cat,L
38,11,low,TRUE,donkey,TRUE,2633,lobster,rhinoceros,donkey,R
38,12,high,TRUE,bird,FALSE,2682,cat,bird,dog,L
38,13,low,TRUE,squirrel,TRUE,10906,raccoon,peacock,squirrel,R
38,14,high,TRUE,dog,TRUE,2681,dog,cat,bird,L
38,15,low,TRUE,rhinoceros,FALSE,3655,lobster,donkey,rhinoceros,L
38,16,high,TRUE,horse,TRUE,3024,horse,pig,cow,L
38,17,low,TRUE,swan,TRUE,3506,swan,rooster,leopard,L
38,18,high,TRUE,pig,FALSE,2684,cow,horse,pig,L
38,19,low,TRUE,rooster,FALSE,2711,swan,leopard,rooster,L
38,20,high,TRUE,duck,TRUE,3078,duck,elephant,fish,L
38,21,low,TRUE,raccoon,TRUE,2622,raccoon,peacock,squirrel,L
38,22,high,TRUE,pig,TRUE,7048,horse,pig,cow,M
38,23,low,TRUE,lobster,FALSE,2208,rhinoceros,donkey,lobster,L
38,24,high,TRUE,elephant,TRUE,2638,duck,elephant,fish,M
38,25,low,TRUE,leopard,TRUE,3586,swan,leopard,rooster,M
38,26,high,TRUE,cow,FALSE,1899,cow,pig,horse,M
38,27,low,TRUE,swan,FALSE,3218,leopard,rooster,swan,L
38,28,high,TRUE,cat,TRUE,7050,dog,cat,bird,M
38,29,low,TRUE,peacock,FALSE,10339,peacock,raccoon,squirrel,M
38,30,high,TRUE,fish,TRUE,3663,elephant,fish,duck,M
38,31,low,TRUE,squirrel,TRUE,3773,squirrel,peacock,raccoon,L
38,32,high,TRUE,duck,TRUE,2644,elephant,fish,duck,R
38,33,low,TRUE,rhinoceros,TRUE,9739,donkey,rhinoceros,lobster,M
38,34,high,TRUE,elephant,TRUE,2584,elephant,fish,duck,L
38,35,low,TRUE,leopard,FALSE,10043,leopard,swan,rooster,M
38,36,high,TRUE,cat,TRUE,2387,dog,cat,bird,M
38,37,low,TRUE,lobster,FALSE,3616,donkey,lobster,rhinoceros,L
38,38,high,TRUE,dog,TRUE,3212,bird,dog,cat,M
38,39,low,TRUE,peacock,FALSE,3560,raccoon,squirrel,peacock,L
38,40,high,TRUE,cow,FALSE,2075,pig,cow,horse,L
39,1,practice,FALSE,apple,FALSE,2441,apple,orange,banana,R
39,2,practice,FALSE,artichoke,TRUE,20330,artichoke,asparagus,onion,L
39,3,practice,FALSE,apple,TRUE,4608,banana,orange,apple,R
39,4,practice,FALSE,artichoke,FALSE,4019,artichoke,onion,asparagus,M
39,5,high,TRUE,dog,TRUE,7406,bird,cat,dog,R
39,6,low,TRUE,raccoon,FALSE,3497,raccoon,peacock,squirrel,R
39,7,high,TRUE,pig,TRUE,5362,cow,pig,horse,M
39,8,low,TRUE,peacock,TRUE,4938,squirrel,raccoon,peacock,R
39,9,high,TRUE,bird,TRUE,3018,cat,bird,dog,M
39,10,low,TRUE,swan,FALSE,4848,rooster,swan,leopard,R
39,11,high,TRUE,horse,TRUE,4009,pig,cow,horse,R
39,12,low,TRUE,rhinoceros,FALSE,8726,lobster,rhinoceros,donkey,R
39,13,high,TRUE,bird,TRUE,2001,dog,cat,bird,R
39,14,low,TRUE,leopard,FALSE,2329,leopard,rooster,swan,M
39,15,high,TRUE,fish,TRUE,2757,duck,elephant,fish,R
39,16,low,TRUE,peacock,TRUE,2298,raccoon,squirrel,peacock,R
39,17,high,TRUE,fish,TRUE,3617,fish,duck,elephant,L
39,18,low,TRUE,squirrel,FALSE,2067,squirrel,raccoon,peacock,R
39,19,high,TRUE,duck,TRUE,3804,elephant,duck,fish,M
39,20,low,TRUE,leopard,TRUE,3978,leopard,swan,rooster,L
39,21,high,TRUE,elephant,TRUE,4545,fish,elephant,duck,M
39,22,low,TRUE,donkey,TRUE,5079,rhinoceros,lobster,donkey,R
39,23,high,TRUE,horse,FALSE,1618,cow,horse,pig,R
39,24,low,TRUE,rhinoceros,TRUE,4525,rhinoceros,donkey,lobster,L
39,25,high,TRUE,elephant,TRUE,2577,duck,elephant,fish,M
39,26,low,TRUE,rooster,TRUE,2904,swan,rooster,leopard,M
39,27,high,TRUE,cow,TRUE,3620,horse,cow,pig,M
39,28,low,TRUE,swan,TRUE,9757,swan,rooster,leopard,L
39,29,high,TRUE,pig,TRUE,3114,pig,cow,horse,L
39,30,low,TRUE,lobster,TRUE,2323,lobster,donkey,rhinoceros,L
39,31,high,TRUE,duck,TRUE,6510,elephant,duck,fish,M
39,32,low,TRUE,lobster,TRUE,6287,lobster,donkey,rhinoceros,L
39,33,high,TRUE,cow,FALSE,3419,horse,pig,cow,M
39,34,low,TRUE,raccoon,TRUE,1765,peacock,squirrel,raccoon,R
39,35,high,TRUE,cat,TRUE,3985,bird,cat,dog,M
39,36,low,TRUE,donkey,TRUE,3279,lobster,rhinoceros,donkey,R
39,37,high,TRUE,dog,TRUE,2775,dog,cat,bird,L
39,38,low,TRUE,rooster,TRUE,3802,leopard,rooster,swan,M
39,39,high,TRUE,cat,TRUE,4994,cat,dog,bird,L
39,40,low,TRUE,squirrel,FALSE,3035,squirrel,raccoon,peacock,M
40,1,practice,FALSE,apple,TRUE,24398,apple,orange,banana,L
40,2,practice,FALSE,artichoke,FALSE,42821,asparagus,onion,artichoke,L
40,3,practice,FALSE,apple,TRUE,281068,banana,apple,orange,M
40,4,practice,FALSE,artichoke,TRUE,54717,artichoke,asparagus,onion,L
40,5,high,TRUE,cat,TRUE,48230,dog,bird,cat,R
40,6,low,TRUE,leopard,FALSE,1862,swan,rooster,leopard,L
40,7,high,TRUE,duck,FALSE,1542,elephant,duck,fish,L
40,8,low,TRUE,peacock,TRUE,3691,peacock,squirrel,raccoon,L
40,9,high,TRUE,dog,TRUE,3057,dog,bird,cat,L
40,10,low,TRUE,leopard,TRUE,1957,leopard,swan,rooster,L
40,11,high,TRUE,bird,TRUE,1915,bird,cat,dog,L
40,12,low,TRUE,squirrel,FALSE,4866,squirrel,peacock,raccoon,M
40,13,high,TRUE,cow,FALSE,3692,pig,cow,horse,L
40,14,low,TRUE,rhinoceros,FALSE,3322,rhinoceros,lobster,donkey,M
40,15,high,TRUE,duck,FALSE,4575,elephant,fish,duck,L
40,16,low,TRUE,donkey,TRUE,2875,lobster,donkey,rhinoceros,M
40,17,high,TRUE,dog,TRUE,2088,dog,bird,cat,L
40,18,low,TRUE,raccoon,FALSE,1525,peacock,raccoon,squirrel,L
40,19,high,TRUE,pig,TRUE,2624,cow,pig,horse,M
40,20,low,TRUE,rooster,TRUE,1651,rooster,swan,leopard,L
40,21,high,TRUE,cow,TRUE,2719,horse,cow,pig,M
40,22,low,TRUE,peacock,FALSE,2555,raccoon,peacock,squirrel,L
40,23,high,TRUE,fish,FALSE,2251,duck,elephant,fish,M
40,24,low,TRUE,rooster,TRUE,1983,swan,rooster,leopard,M
40,25,high,TRUE,cat,TRUE,2635,bird,cat,dog,M
40,26,low,TRUE,rhinoceros,FALSE,2454,rhinoceros,lobster,donkey,M
40,27,high,TRUE,elephant,TRUE,1575,fish,elephant,duck,M
40,28,low,TRUE,lobster,TRUE,2031,donkey,lobster,rhinoceros,M
40,29,high,TRUE,bird,TRUE,2066,bird,dog,cat,L
40,30,low,TRUE,raccoon,FALSE,3025,peacock,raccoon,squirrel,R
40,31,high,TRUE,pig,TRUE,2314,pig,cow,horse,L
40,32,low,TRUE,swan,FALSE,25102,swan,rooster,leopard,R
40,33,high,TRUE,horse,TRUE,2820,cow,horse,pig,M
40,34,low,TRUE,squirrel,TRUE,3341,peacock,raccoon,squirrel,R
40,35,high,TRUE,elephant,TRUE,2034,duck,elephant,fish,M
40,36,low,TRUE,swan,FALSE,2903,rooster,leopard,swan,M
40,37,high,TRUE,fish,TRUE,2534,duck,fish,elephant,M
40,38,low,TRUE,lobster,TRUE,2200,rhinoceros,lobster,donkey,M
40,39,high,TRUE,horse,TRUE,2335,cow,pig,horse,R
40,40,low,TRUE,donkey,TRUE,4137,donkey,lobster,rhinoceros,L
41,1,practice,FALSE,apple,TRUE,10267,apple,banana,orange,L
41,2,practice,FALSE,artichoke,FALSE,19857,onion,asparagus,artichoke,M
41,3,practice,FALSE,apple,TRUE,9124,orange,banana,apple,R
41,4,practice,FALSE,artichoke,FALSE,13470,onion,artichoke,asparagus,R
41,5,high,TRUE,cat,TRUE,10111,bird,dog,cat,R
41,6,low,TRUE,raccoon,TRUE,3598,peacock,squirrel,raccoon,R
41,7,high,TRUE,horse,TRUE,3222,cow,pig,horse,R
41,8,low,TRUE,rhinoceros,FALSE,4443,rhinoceros,lobster,donkey,M
41,9,high,TRUE,duck,TRUE,4164,fish,elephant,duck,R
41,10,low,TRUE,rooster,TRUE,2138,rooster,swan,leopard,L
41,11,high,TRUE,horse,FALSE,2592,cow,horse,pig,R
41,12,low,TRUE,squirrel,FALSE,2277,raccoon,peacock,squirrel,L
41,13,high,TRUE,fish,TRUE,9180,elephant,duck,fish,R
41,14,low,TRUE,leopard,TRUE,3077,swan,leopard,rooster,M
41,15,high,TRUE,elephant,TRUE,2588,duck,elephant,fish,M
41,16,low,TRUE,lobster,TRUE,1878,rhinoceros,lobster,donkey,M
41,17,high,TRUE,elephant,FALSE,2012,duck,elephant,fish,L
41,18,low,TRUE,lobster,TRUE,2438,rhinoceros,donkey,lobster,R
41,19,high,TRUE,fish,TRUE,4926,fish,elephant,duck,L
41,20,low,TRUE,leopard,TRUE,10227,rooster,leopard,swan,M
41,21,high,TRUE,bird,FALSE,3035,dog,bird,cat,L
41,22,low,TRUE,rooster,TRUE,3345,swan,leopard,rooster,R
41,23,high,TRUE,bird,TRUE,5947,dog,cat,bird,R
41,24,low,TRUE,raccoon,FALSE,6517,raccoon,squirrel,peacock,M
41,25,high,TRUE,cow,FALSE,5254,pig,cow,horse,R
41,26,low,TRUE,peacock,TRUE,7978,squirrel,raccoon,peacock,R
41,27,high,TRUE,duck,TRUE,6614,fish,elephant,duck,R
41,28,low,TRUE,swan,TRUE,12179,swan,leopard,rooster,L
41,29,high,TRUE,dog,TRUE,2885,bird,dog,cat,M
41,30,low,TRUE,squirrel,FALSE,3480,peacock,squirrel,raccoon,L
41,31,high,TRUE,dog,TRUE,3119,dog,cat,bird,L
41,32,low,TRUE,rhinoceros,FALSE,3238,lobster,donkey,rhinoceros,L
41,33,high,TRUE,pig,TRUE,5508,horse,pig,cow,M
41,34,low,TRUE,peacock,TRUE,2707,peacock,squirrel,raccoon,L
41,35,high,TRUE,cow,FALSE,2105,horse,pig,cow,M
41,36,low,TRUE,swan,TRUE,7594,rooster,swan,leopard,M
41,37,high,TRUE,pig,TRUE,4383,cow,horse,pig,R
41,38,low,TRUE,donkey,FALSE,5447,donkey,rhinoceros,lobster,R
41,39,high,TRUE,cat,TRUE,3705,dog,bird,cat,R
41,40,low,TRUE,donkey,FALSE,2247,lobster,donkey,rhinoceros,L
42,1,practice,FALSE,apple,FALSE,2465,apple,orange,banana,R
42,2,practice,FALSE,artichoke,TRUE,15647,asparagus,onion,artichoke,R
42,3,practice,FALSE,apple,TRUE,1700,banana,apple,orange,M
42,4,practice,FALSE,artichoke,FALSE,1801,artichoke,onion,asparagus,M
42,5,low,TRUE,squirrel,TRUE,1850,raccoon,peacock,squirrel,R
42,6,high,TRUE,fish,TRUE,2443,duck,elephant,fish,R
42,7,low,TRUE,peacock,FALSE,2492,raccoon,peacock,squirrel,R
42,8,high,TRUE,cat,TRUE,2167,cat,bird,dog,L
42,9,low,TRUE,rhinoceros,FALSE,1550,rhinoceros,lobster,donkey,M
42,10,high,TRUE,cat,TRUE,2388,cat,dog,bird,L
42,11,low,TRUE,squirrel,FALSE,5346,squirrel,raccoon,peacock,M
42,12,high,TRUE,bird,TRUE,2735,bird,dog,cat,L
42,13,low,TRUE,rooster,TRUE,2133,leopard,rooster,swan,M
42,14,high,TRUE,horse,FALSE,3079,pig,horse,cow,R
42,15,low,TRUE,lobster,FALSE,7422,lobster,donkey,rhinoceros,R
42,16,high,TRUE,fish,TRUE,2003,duck,fish,elephant,M
42,17,low,TRUE,leopard,FALSE,2833,swan,rooster,leopard,M
42,18,high,TRUE,elephant,TRUE,3483,fish,duck,elephant,R
42,19,low,TRUE,donkey,TRUE,3050,rhinoceros,donkey,lobster,M
42,20,high,TRUE,cow,FALSE,2728,pig,cow,horse,R
42,21,low,TRUE,lobster,TRUE,2330,rhinoceros,donkey,lobster,R
42,22,high,TRUE,elephant,FALSE,2853,duck,fish,elephant,M
42,23,low,TRUE,raccoon,TRUE,20541,peacock,squirrel,raccoon,R
42,24,high,TRUE,bird,TRUE,2245,cat,bird,dog,M
42,25,low,TRUE,swan,TRUE,8463,leopard,rooster,swan,R
42,26,high,TRUE,dog,TRUE,1951,bird,dog,cat,M
42,27,low,TRUE,peacock,TRUE,2593,raccoon,squirrel,peacock,R
42,28,high,TRUE,pig,FALSE,2812,horse,cow,pig,M
42,29,low,TRUE,rhinoceros,TRUE,1834,donkey,lobster,rhinoceros,R
42,30,high,TRUE,horse,FALSE,6193,pig,horse,cow,R
42,31,low,TRUE,leopard,TRUE,4962,rooster,swan,leopard,R
42,32,high,TRUE,duck,TRUE,2773,elephant,fish,duck,R
42,33,low,TRUE,donkey,FALSE,9190,donkey,lobster,rhinoceros,R
42,34,high,TRUE,dog,TRUE,3344,dog,bird,cat,L
42,35,low,TRUE,raccoon,FALSE,6035,raccoon,peacock,squirrel,M
42,36,high,TRUE,duck,FALSE,4000,elephant,duck,fish,R
42,37,low,TRUE,swan,FALSE,8360,swan,rooster,leopard,R
42,38,high,TRUE,cow,FALSE,5838,cow,horse,pig,R
42,39,low,TRUE,rooster,FALSE,3247,rooster,swan,leopard,M
42,40,high,TRUE,pig,TRUE,7336,pig,cow,horse,L
43,1,practice,FALSE,apple,TRUE,10288,orange,banana,apple,R
43,2,practice,FALSE,artichoke,TRUE,4076,artichoke,asparagus,onion,L
43,3,practice,FALSE,apple,TRUE,3138,apple,banana,orange,L
43,4,practice,FALSE,artichoke,TRUE,3951,asparagus,onion,artichoke,R
43,5,high,TRUE,dog,TRUE,7777,bird,dog,cat,M
43,6,low,TRUE,peacock,TRUE,3479,squirrel,raccoon,peacock,R
43,7,high,TRUE,horse,TRUE,2793,horse,pig,cow,L
43,8,low,TRUE,leopard,TRUE,5291,leopard,rooster,swan,L
43,9,high,TRUE,cow,TRUE,3321,cow,pig,horse,L
43,10,low,TRUE,rhinoceros,TRUE,4162,lobster,rhinoceros,donkey,M
43,11,high,TRUE,bird,TRUE,3174,bird,dog,cat,L
43,12,low,TRUE,swan,TRUE,4511,leopard,rooster,swan,R
43,13,high,TRUE,elephant,TRUE,4075,fish,duck,elephant,R
43,14,low,TRUE,leopard,TRUE,3470,leopard,rooster,swan,L
43,15,high,TRUE,pig,TRUE,3832,cow,pig,horse,M
43,16,low,TRUE,raccoon,TRUE,5291,squirrel,peacock,raccoon,R
43,17,high,TRUE,pig,TRUE,2595,cow,horse,pig,R
43,18,low,TRUE,squirrel,TRUE,3533,raccoon,squirrel,peacock,M
43,19,high,TRUE,fish,TRUE,2347,elephant,fish,duck,M
43,20,low,TRUE,raccoon,TRUE,5779,raccoon,squirrel,peacock,L
43,21,high,TRUE,cat,TRUE,15404,bird,dog,cat,R
43,22,low,TRUE,lobster,TRUE,3554,rhinoceros,lobster,donkey,M
43,23,high,TRUE,fish,TRUE,2526,fish,duck,elephant,L
43,24,low,TRUE,rooster,TRUE,3715,swan,leopard,rooster,R
43,25,high,TRUE,cat,TRUE,2378,bird,cat,dog,M
43,26,low,TRUE,donkey,TRUE,6159,lobster,rhinoceros,donkey,R
43,27,high,TRUE,duck,TRUE,2664,duck,elephant,fish,L
43,28,low,TRUE,rooster,TRUE,3813,leopard,swan,rooster,R
43,29,high,TRUE,horse,TRUE,2866,horse,cow,pig,L
43,30,low,TRUE,swan,TRUE,2592,swan,rooster,leopard,L
43,31,high,TRUE,elephant,TRUE,3563,duck,elephant,fish,M
43,32,low,TRUE,squirrel,TRUE,2323,squirrel,peacock,raccoon,L
43,33,high,TRUE,cow,TRUE,4168,cow,horse,pig,L
43,34,low,TRUE,peacock,FALSE,4582,raccoon,squirrel,peacock,L
43,35,high,TRUE,dog,TRUE,15396,dog,cat,bird,L
43,36,low,TRUE,donkey,TRUE,4210,donkey,lobster,rhinoceros,L
43,37,high,TRUE,duck,TRUE,2951,fish,duck,elephant,M
43,38,low,TRUE,lobster,FALSE,9130,donkey,rhinoceros,lobster,L
43,39,high,TRUE,bird,TRUE,5625,dog,bird,cat,M
43,40,low,TRUE,rhinoceros,TRUE,3151,donkey,lobster,rhinoceros,R
44,1,practice,FALSE,apple,TRUE,7207,banana,orange,apple,R
44,2,practice,FALSE,artichoke,FALSE,1624,artichoke,onion,asparagus,R
44,3,practice,FALSE,apple,TRUE,2220,orange,apple,banana,M
44,4,practice,FALSE,artichoke,TRUE,3401,onion,asparagus,artichoke,R
44,5,high,TRUE,horse,FALSE,3059,horse,cow,pig,M
44,6,low,TRUE,peacock,TRUE,2923,raccoon,squirrel,peacock,R
44,7,high,TRUE,dog,TRUE,2878,bird,cat,dog,R
44,8,low,TRUE,rhinoceros,TRUE,3501,donkey,rhinoceros,lobster,M
44,9,high,TRUE,cow,FALSE,1957,cow,horse,pig,M
44,10,low,TRUE,leopard,FALSE,1642,leopard,swan,rooster,M
44,11,high,TRUE,bird,TRUE,8207,bird,cat,dog,L
44,12,low,TRUE,raccoon,FALSE,2220,squirrel,peacock,raccoon,M
44,13,high,TRUE,pig,TRUE,2624,cow,pig,horse,M
44,14,low,TRUE,raccoon,FALSE,1871,squirrel,raccoon,peacock,L
44,15,high,TRUE,cow,TRUE,1624,pig,cow,horse,M
44,16,low,TRUE,rhinoceros,FALSE,1778,donkey,rhinoceros,lobster,L
44,17,high,TRUE,fish,TRUE,2959,elephant,duck,fish,R
44,18,low,TRUE,squirrel,TRUE,2481,squirrel,peacock,raccoon,L
44,19,high,TRUE,cat,TRUE,3310,dog,bird,cat,R
44,20,low,TRUE,donkey,FALSE,2043,donkey,rhinoceros,lobster,R
44,21,high,TRUE,fish,TRUE,2235,duck,fish,elephant,M
44,22,low,TRUE,lobster,TRUE,2887,rhinoceros,donkey,lobster,R
44,23,high,TRUE,elephant,TRUE,2169,duck,fish,elephant,R
44,24,low,TRUE,squirrel,FALSE,3527,raccoon,peacock,squirrel,M
44,25,high,TRUE,bird,TRUE,2109,bird,dog,cat,L
44,26,low,TRUE,leopard,TRUE,4654,leopard,swan,rooster,L
44,27,high,TRUE,dog,TRUE,1814,cat,bird,dog,R
44,28,low,TRUE,lobster,TRUE,2560,lobster,rhinoceros,donkey,L
44,29,high,TRUE,horse,FALSE,3430,cow,horse,pig,L
44,30,low,TRUE,peacock,FALSE,3859,squirrel,raccoon,peacock,L
44,31,high,TRUE,pig,TRUE,4005,cow,pig,horse,M
44,32,low,TRUE,rooster,TRUE,13520,swan,leopard,rooster,R
44,33,high,TRUE,duck,TRUE,21943,elephant,fish,duck,R
44,34,low,TRUE,donkey,TRUE,4380,lobster,rhinoceros,donkey,R
44,35,high,TRUE,duck,TRUE,8497,elephant,duck,fish,M
44,36,low,TRUE,swan,TRUE,2776,rooster,leopard,swan,R
44,37,high,TRUE,elephant,FALSE,6280,duck,fish,elephant,M
44,38,low,TRUE,rooster,FALSE,3069,swan,rooster,leopard,L
44,39,high,TRUE,cat,FALSE,3888,bird,cat,dog,R
44,40,low,TRUE,swan,FALSE,12027,leopard,swan,rooster,L
45,1,practice,FALSE,apple,TRUE,6139,apple,orange,banana,L
45,2,practice,FALSE,artichoke,FALSE,8896,onion,asparagus,artichoke,M
45,3,practice,FALSE,apple,TRUE,6867,orange,banana,apple,R
45,4,practice,FALSE,artichoke,TRUE,4272,onion,artichoke,asparagus,M
45,5,low,TRUE,peacock,TRUE,5936,raccoon,squirrel,peacock,R
45,6,high,TRUE,duck,TRUE,4116,elephant,fish,duck,R
45,7,low,TRUE,swan,TRUE,3707,leopard,rooster,swan,R
45,8,high,TRUE,horse,TRUE,4681,cow,pig,horse,R
45,9,low,TRUE,rhinoceros,TRUE,4378,donkey,lobster,rhinoceros,R
45,10,high,TRUE,dog,TRUE,4778,cat,bird,dog,R
45,11,low,TRUE,leopard,TRUE,3648,leopard,rooster,swan,L
45,12,high,TRUE,duck,TRUE,3898,fish,duck,elephant,M
45,13,low,TRUE,rhinoceros,TRUE,5233,donkey,lobster,rhinoceros,R
45,14,high,TRUE,cow,TRUE,4867,horse,cow,pig,M
45,15,low,TRUE,swan,TRUE,4158,leopard,swan,rooster,M
45,16,high,TRUE,cat,TRUE,4862,cat,bird,dog,L
45,17,low,TRUE,donkey,TRUE,5179,rhinoceros,lobster,donkey,R
45,18,high,TRUE,dog,TRUE,3534,dog,bird,cat,L
45,19,low,TRUE,raccoon,TRUE,3694,peacock,raccoon,squirrel,M
45,20,high,TRUE,pig,TRUE,3948,horse,cow,pig,R
45,21,low,TRUE,peacock,TRUE,3344,peacock,squirrel,raccoon,L
45,22,high,TRUE,cat,TRUE,7947,bird,dog,cat,R
45,23,low,TRUE,rooster,TRUE,NA,swan,rooster,leopard,M
45,24,high,TRUE,cow,TRUE,5126,cow,pig,horse,L
45,25,low,TRUE,squirrel,TRUE,3120,squirrel,peacock,raccoon,L
45,26,high,TRUE,elephant,TRUE,3456,duck,elephant,fish,M
45,27,low,TRUE,leopard,TRUE,NA,leopard,rooster,swan,L
45,28,high,TRUE,fish,TRUE,4241,fish,duck,elephant,L
45,29,low,TRUE,rooster,TRUE,4261,leopard,swan,rooster,R
45,30,high,TRUE,elephant,TRUE,5587,elephant,duck,fish,L
45,31,low,TRUE,squirrel,TRUE,3501,raccoon,squirrel,peacock,M
45,32,high,TRUE,fish,TRUE,4756,elephant,fish,duck,M
45,33,low,TRUE,donkey,TRUE,NA,rhinoceros,donkey,lobster,M
45,34,high,TRUE,bird,TRUE,5365,cat,bird,dog,M
45,35,low,TRUE,lobster,TRUE,4449,rhinoceros,donkey,lobster,R
45,36,high,TRUE,pig,TRUE,NA,pig,cow,horse,L
45,37,low,TRUE,raccoon,TRUE,2829,raccoon,peacock,squirrel,L
45,38,high,TRUE,horse,TRUE,6151,pig,horse,cow,M
45,39,low,TRUE,lobster,TRUE,4892,donkey,rhinoceros,lobster,R
45,40,high,TRUE,bird,TRUE,3271,bird,cat,dog,L
46,1,practice,FALSE,apple,FALSE,1847,orange,banana,apple,L
46,2,practice,FALSE,artichoke,TRUE,1911,artichoke,onion,asparagus,L
46,3,practice,FALSE,apple,FALSE,2651,banana,apple,orange,R
46,4,practice,FALSE,artichoke,FALSE,17115,artichoke,onion,asparagus,M
46,5,high,TRUE,cow,FALSE,1995,cow,pig,horse,R
46,6,low,TRUE,leopard,FALSE,2896,rooster,leopard,swan,L
46,7,high,TRUE,pig,FALSE,3263,horse,cow,pig,M
46,8,low,TRUE,raccoon,TRUE,6916,raccoon,squirrel,peacock,L
46,9,high,TRUE,bird,FALSE,1581,cat,bird,dog,R
46,10,high,TRUE,fish,TRUE,2367,fish,duck,elephant,L
46,11,low,TRUE,raccoon,TRUE,5155,squirrel,raccoon,peacock,M
46,12,high,TRUE,duck,FALSE,3033,elephant,duck,fish,L
46,13,low,TRUE,lobster,FALSE,1983,lobster,rhinoceros,donkey,M
46,14,high,TRUE,bird,FALSE,2880,dog,cat,bird,L
46,15,high,TRUE,cat,FALSE,6735,dog,cat,bird,R
46,16,low,TRUE,donkey,FALSE,8076,lobster,rhinoceros,donkey,M
46,17,high,TRUE,dog,TRUE,14387,bird,dog,cat,M
46,18,low,TRUE,rhinoceros,FALSE,6761,rhinoceros,donkey,lobster,M
46,19,low,TRUE,leopard,TRUE,7042,rooster,leopard,swan,M
46,20,high,TRUE,pig,TRUE,4747,cow,pig,horse,M
46,21,low,TRUE,rhinoceros,TRUE,17760,lobster,rhinoceros,donkey,M
46,22,high,TRUE,dog,FALSE,4295,bird,cat,dog,L
46,23,high,TRUE,horse,FALSE,5649,pig,horse,cow,L
46,24,low,TRUE,squirrel,FALSE,17314,squirrel,peacock,raccoon,M
46,25,low,TRUE,swan,FALSE,3397,swan,leopard,rooster,M
